Time,QuatW,QuatX,QuatY,QuatZ,AccX,AccY,AccZ,GyroX,GyroY,GyroZ,QuatW2,QuatX2,QuatY2,QuatZ2,AccX2,AccY2,AccZ2,GyroX2,GyroY2,GyroZ2



1640,0.00,0.00,0.00,0.00,9.83,-0.50,-1.35,0.00,0.00,0.00,0.00,0.00,0.00,0.00,9.32,2.09,-1.98,0.00,0.00,0.00
1660,0.00,0.00,0.00,0.00,9.79,-0.35,-1.42,0.00,0.00,0.00,0.00,0.00,0.00,0.00,9.16,2.12,-2.05,0.00,0.00,0.00

1700,0.00,0.00,0.00,0.00,9.57,-0.23,-1.57,0.00,0.00,0.00,0.00,0.00,0.00,0.00,9.05,2.16,-2.17,0.00,0.00,0.00
1720,0.65,-0.01,-0.76,0.01,9.57,-0.23,-1.57,0.00,0.00,0.00,0.62,0.07,-0.78,-0.09,9.05,2.16,-2.17,0.00,0.00,0.00

1760,0.65,-0.01,-0.76,0.01,9.61,-0.27,-1.69,0.00,0.00,0.00,0.62,0.07,-0.78,-0.09,9.05,2.16,-2.21,0.00,0.00,0.00
1780,0.65,-0.01,-0.76,0.01,9.61,-0.27,-1.69,0.00,0.00,0.00,0.61,0.07,-0.78,-0.09,9.05,2.16,-2.21,0.00,0.00,0.00
1800,0.65,-0.01,-0.76,0.01,9.61,-0.27,-1.69,-0.06,0.00,-0.04,0.61,0.07,-0.78,-0.09,8.97,2.32,-2.36,0.00,0.00,0.00
1820,0.65,-0.01,-0.76,0.01,9.61,-0.27,-1.69,-0.06,0.00,-0.04,0.61,0.07,-0.78,-0.09,8.97,2.32,-2.36,0.00,0.00,0.00
1840,0.65,-0.01,-0.76,0.01,9.56,-0.31,-1.73,-0.06,0.00,-0.04,0.61,0.07,-0.78,-0.09,8.97,2.32,-2.36,-0.08,-0.00,-0.04
1860,0.65,-0.01,-0.76,0.01,9.56,-0.31,-1.73,-0.06,0.00,-0.04,0.61,0.07,-0.78,-0.10,8.97,2.32,-2.36,-0.08,-0.00,-0.04
1880,0.65,-0.01,-0.76,0.01,9.56,-0.31,-1.73,-0.02,-0.00,-0.05,0.61,0.07,-0.78,-0.10,8.89,2.24,-2.29,-0.08,-0.00,-0.04
1900,0.65,-0.01,-0.76,0.01,9.56,-0.31,-1.73,-0.02,-0.00,-0.05,0.61,0.07,-0.78,-0.10,8.89,2.24,-2.29,-0.08,-0.00,-0.04
1920,0.65,-0.01,-0.76,0.01,9.33,-0.39,-1.80,-0.02,-0.00,-0.05,0.61,0.07,-0.78,-0.10,8.97,2.16,-2.25,-0.08,-0.00,-0.04
1940,0.65,-0.01,-0.76,0.01,9.33,-0.39,-1.80,-0.02,-0.00,-0.05,0.62,0.07,-0.78,-0.10,8.97,2.16,-2.25,-0.08,-0.00,-0.04
1960,0.65,-0.01,-0.76,0.01,9.18,1.14,-1.54,-0.02,-0.00,-0.05,0.62,0.07,-0.78,-0.10,8.55,3.31,-2.32,-0.08,-0.00,-0.04
1980,0.65,-0.01,-0.76,0.00,9.18,1.14,-1.54,-0.02,-0.00,-0.05,0.62,0.07,-0.78,-0.10,8.55,3.31,-2.32,-0.08,-0.00,-0.04
2000,0.65,-0.01,-0.76,0.00,9.22,-1.20,-1.65,-0.02,-0.00,-0.05,0.62,0.07,-0.78,-0.10,9.16,1.63,-1.98,-0.08,-0.00,-0.04
2020,0.65,-0.01,-0.76,0.00,9.22,-1.20,-1.65,-0.02,-0.00,-0.05,0.62,0.07,-0.78,-0.10,9.16,1.63,-1.98,-0.08,-0.00,-0.04
2040,0.65,-0.01,-0.76,0.00,9.99,-1.96,-0.93,-0.02,-0.00,-0.05,0.62,0.07,-0.78,-0.10,9.47,1.97,-1.90,-0.08,-0.00,-0.04
2102,0.65,-0.01,-0.76,0.00,9.99,-1.96,-0.93,-0.02,-0.00,-0.05,0.61,0.07,-0.78,-0.10,9.47,1.97,-1.90,-0.08,-0.00,-0.04
2110,0.65,-0.01,-0.76,0.00,10.33,-2.50,0.61,-0.02,-0.00,-0.05,0.61,0.07,-0.78,-0.10,8.70,2.28,-0.25,-0.08,-0.00,-0.04
2127,0.66,0.00,-0.75,0.01,10.33,-2.50,0.61,-0.02,-0.00,-0.05,0.59,0.07,-0.79,-0.11,8.70,2.28,-0.25,-0.08,-0.00,-0.04
2135,0.66,0.00,-0.75,0.01,10.33,-2.50,0.61,0.37,0.87,0.11,0.59,0.07,-0.79,-0.11,11.39,2.20,-0.10,-0.08,-0.00,-0.04
2143,0.66,0.00,-0.75,0.01,12.51,-0.70,1.80,0.37,0.87,0.11,0.59,0.07,-0.79,-0.11,11.19,2.62,-0.37,-0.08,-0.00,-0.04
2160,0.68,0.00,-0.73,0.02,12.51,-0.70,1.80,0.37,0.87,0.11,0.59,0.07,-0.79,-0.11,11.19,2.62,-0.37,-0.32,-1.23,0.20
2180,0.68,0.00,-0.73,0.02,12.16,0.30,0.91,0.37,0.87,0.11,0.58,0.06,-0.81,-0.11,11.19,2.62,-0.37,-0.32,-1.23,0.20
2200,0.69,0.00,-0.73,0.02,12.16,0.30,0.91,0.37,0.87,0.11,0.58,0.06,-0.81,-0.11,11.19,2.62,-0.37,-0.76,-1.37,0.40
2220,0.69,0.00,-0.73,0.02,11.36,0.49,-0.35,0.37,0.87,0.11,0.56,0.04,-0.82,-0.12,11.19,2.62,-0.37,-0.76,-1.37,0.40
2240,0.71,0.00,-0.71,0.03,11.36,0.49,-0.35,0.37,0.87,0.11,0.56,0.04,-0.82,-0.12,10.20,0.59,-3.74,-0.76,-1.37,0.40
2260,0.71,0.00,-0.71,0.03,9.98,-0.89,-1.50,0.37,0.87,0.11,0.54,0.03,-0.83,-0.12,10.20,0.59,-3.74,-0.76,-1.37,0.40
2280,0.72,0.00,-0.70,0.04,9.98,-0.89,-1.50,0.37,0.87,0.11,0.54,0.03,-0.83,-0.12,9.58,-0.82,-2.44,-0.76,-1.37,0.40
2300,0.72,0.00,-0.70,0.04,9.53,-2.00,-0.81,0.37,0.87,0.11,0.53,0.03,-0.84,-0.09,9.58,-0.82,-2.44,-0.76,-1.37,0.40
2320,0.73,0.01,-0.68,0.05,9.53,-2.00,-0.81,0.37,0.87,0.11,0.53,0.03,-0.84,-0.09,8.82,2.51,-1.90,-0.76,-1.37,0.40
2340,0.73,0.01,-0.68,0.05,9.41,-1.46,-0.54,0.37,0.87,0.11,0.54,0.04,-0.84,-0.07,8.82,2.51,-1.90,-0.76,-1.37,0.40
2360,0.74,0.03,-0.66,0.07,9.41,-1.46,-0.54,0.37,0.87,0.11,0.54,0.04,-0.84,-0.07,9.13,2.47,-1.10,-0.76,-1.37,0.40
2380,0.74,0.03,-0.66,0.07,9.41,-0.66,0.88,0.37,0.87,0.11,0.54,0.04,-0.84,-0.06,9.13,2.47,-1.10,-0.76,-1.37,0.40
2400,0.75,0.05,-0.65,0.09,9.41,-0.66,0.88,0.37,0.87,0.11,0.54,0.04,-0.84,-0.06,8.70,3.05,-0.52,-0.76,-1.37,0.40
2420,0.75,0.05,-0.65,0.09,8.84,0.45,1.03,0.37,0.87,0.11,0.56,0.03,-0.82,-0.06,8.70,3.05,-0.52,-0.76,-1.37,0.40
2440,0.76,0.06,-0.64,0.11,8.84,0.45,1.03,0.37,0.87,0.11,0.56,0.03,-0.82,-0.06,9.77,2.47,-0.25,-0.76,-1.37,0.40
2460,0.76,0.06,-0.64,0.11,9.14,0.76,1.45,0.37,0.87,0.11,0.59,0.03,-0.80,-0.06,9.77,2.47,-0.25,-0.76,-1.37,0.40
2480,0.77,0.06,-0.63,0.12,9.14,0.76,1.45,0.37,0.87,0.11,0.59,0.03,-0.80,-0.06,9.81,3.01,-0.33,-0.76,-1.37,0.40
2500,0.77,0.06,-0.63,0.12,8.80,-0.08,2.71,0.37,0.87,0.11,0.63,0.04,-0.77,-0.06,9.81,3.01,-0.33,-0.76,-1.37,0.40
2520,0.78,0.07,-0.61,0.13,8.80,-0.08,2.71,0.37,0.87,0.11,0.63,0.04,-0.77,-0.06,10.38,2.43,0.13,-0.76,-1.37,0.40
2540,0.78,0.07,-0.61,0.13,8.80,-0.08,2.71,0.56,0.42,0.14,0.67,0.04,-0.74,-0.06,10.38,2.43,0.13,-0.76,-1.37,0.40
2560,0.78,0.08,-0.61,0.14,8.80,-0.08,2.71,0.56,0.42,0.14,0.67,0.04,-0.74,-0.06,10.38,2.43,0.13,-0.35,2.54,-0.43
2580,0.78,0.08,-0.61,0.14,8.07,-0.46,3.33,0.56,0.42,0.14,0.70,0.05,-0.71,-0.07,10.38,2.43,0.13,-0.35,2.54,-0.43
2600,0.78,0.09,-0.60,0.14,8.07,-0.46,3.33,0.56,0.42,0.14,0.70,0.05,-0.71,-0.07,10.12,1.82,0.32,-0.35,2.54,-0.43
2620,0.78,0.09,-0.60,0.14,8.07,-0.46,3.33,0.66,0.08,-0.10,0.73,0.06,-0.67,-0.07,10.12,1.82,0.32,-0.35,2.54,-0.43
2640,0.78,0.10,-0.60,0.15,8.07,-0.46,3.33,0.66,0.08,-0.10,0.73,0.06,-0.67,-0.07,10.12,1.82,0.32,0.32,2.17,-0.46
2660,0.78,0.10,-0.60,0.15,8.04,0.88,5.32,0.66,0.08,-0.10,0.76,0.08,-0.64,-0.07,10.12,1.82,0.32,0.32,2.17,-0.46
2680,0.78,0.10,-0.59,0.15,8.04,0.88,5.32,0.66,0.08,-0.10,0.76,0.08,-0.64,-0.07,7.90,1.36,-0.14,0.32,2.17,-0.46
2700,0.78,0.10,-0.59,0.15,8.72,0.30,6.09,0.66,0.08,-0.10,0.77,0.08,-0.63,-0.07,7.90,1.36,-0.14,0.32,2.17,-0.46
2720,0.79,0.10,-0.59,0.15,8.72,0.30,6.09,0.66,0.08,-0.10,0.77,0.08,-0.63,-0.07,7.29,0.82,-0.95,0.32,2.17,-0.46
2740,0.79,0.10,-0.59,0.15,8.38,1.49,5.05,0.66,0.08,-0.10,0.77,0.08,-0.63,-0.07,7.29,0.82,-0.95,0.32,2.17,-0.46
2760,0.79,0.10,-0.58,0.15,8.38,1.49,5.05,0.66,0.08,-0.10,0.77,0.08,-0.63,-0.07,7.18,0.21,-1.79,0.32,2.17,-0.46
2780,0.79,0.10,-0.58,0.15,7.76,-0.12,4.29,0.66,0.08,-0.10,0.76,0.08,-0.65,-0.07,7.18,0.21,-1.79,0.32,2.17,-0.46
2800,0.80,0.09,-0.58,0.16,7.76,-0.12,4.29,0.66,0.08,-0.10,0.76,0.08,-0.65,-0.07,7.90,-0.21,-4.05,0.32,2.17,-0.46
2820,0.80,0.09,-0.58,0.16,8.50,-2.30,4.29,0.66,0.08,-0.10,0.74,0.07,-0.67,-0.06,7.90,-0.21,-4.05,0.32,2.17,-0.46
2840,0.80,0.09,-0.57,0.17,8.50,-2.30,4.29,0.66,0.08,-0.10,0.74,0.07,-0.67,-0.06,9.20,2.20,1.09,0.32,2.17,-0.46
2860,0.80,0.09,-0.57,0.17,5.54,0.22,-0.54,0.66,0.08,-0.10,0.72,0.09,-0.69,-0.04,9.20,2.20,1.09,0.32,2.17,-0.46
2880,0.79,0.08,-0.58,0.17,5.54,0.22,-0.54,0.66,0.08,-0.10,0.72,0.09,-0.69,-0.04,17.55,5.61,3.12,0.32,2.17,-0.46
2900,0.79,0.08,-0.58,0.17,5.54,0.22,-0.54,-0.30,-0.35,0.76,0.69,0.12,-0.71,-0.01,17.55,5.61,3.12,0.32,2.17,-0.46
2920,0.77,0.06,-0.61,0.17,5.54,0.22,-0.54,-0.30,-0.35,0.76,0.69,0.12,-0.71,-0.01,7.52,2.51,-4.01,0.32,2.17,-0.46
2940,0.77,0.06,-0.61,0.17,5.39,0.53,-7.36,-0.30,-0.35,0.76,0.67,0.12,-0.73,0.01,7.52,2.51,-4.01,0.32,2.17,-0.46
2960,0.76,0.03,-0.63,0.15,5.39,0.53,-7.36,-0.30,-0.35,0.76,0.67,0.12,-0.73,0.01,9.66,-2.28,-6.15,0.32,2.17,-0.46
2980,0.76,0.03,-0.63,0.15,5.39,0.53,-7.36,-0.83,-1.76,1.15,0.65,0.12,-0.75,0.02,9.66,-2.28,-6.15,0.32,2.17,-0.46
3000,0.74,0.02,-0.66,0.15,5.39,0.53,-7.36,-0.83,-1.76,1.15,0.65,0.12,-0.75,0.02,9.66,-2.28,-6.15,0.16,-0.96,0.38
3020,0.74,0.02,-0.66,0.15,8.30,-2.11,-1.50,-0.83,-1.76,1.15,0.64,0.12,-0.76,0.03,9.66,-2.28,-6.15,0.16,-0.96,0.38
3040,0.72,0.03,-0.68,0.15,8.30,-2.11,-1.50,-0.83,-1.76,1.15,0.64,0.12,-0.76,0.03,10.12,0.67,-3.55,0.16,-0.96,0.38
3060,0.72,0.03,-0.68,0.15,8.30,-2.11,-1.50,-0.21,-1.77,-0.10,0.63,0.12,-0.77,0.03,10.12,0.67,-3.55,0.16,-0.96,0.38
3080,0.69,0.03,-0.71,0.14,8.30,-2.11,-1.50,-0.21,-1.77,-0.10,0.63,0.12,-0.77,0.03,9.43,0.59,-2.48,0.16,-0.96,0.38
3100,0.69,0.03,-0.71,0.14,9.18,-1.23,-0.93,-0.21,-1.77,-0.10,0.62,0.11,-0.78,0.02,9.43,0.59,-2.48,0.16,-0.96,0.38
3120,0.66,0.02,-0.74,0.13,9.18,-1.23,-0.93,-0.21,-1.77,-0.10,0.62,0.11,-0.78,0.02,9.47,1.21,-1.71,0.16,-0.96,0.38
3140,0.66,0.02,-0.74,0.13,9.52,-2.15,-0.20,-0.21,-1.77,-0.10,0.61,0.11,-0.78,0.02,9.47,1.21,-1.71,0.16,-0.96,0.38
3160,0.64,0.02,-0.76,0.12,9.52,-2.15,-0.20,-0.21,-1.77,-0.10,0.61,0.11,-0.78,0.02,8.51,0.75,-0.79,0.16,-0.96,0.38
3180,0.64,0.02,-0.76,0.12,8.72,-2.57,-0.00,-0.21,-1.77,-0.10,0.60,0.10,-0.79,0.02,8.51,0.75,-0.79,0.16,-0.96,0.38
3200,0.61,0.03,-0.79,0.10,8.72,-2.57,-0.00,-0.21,-1.77,-0.10,0.60,0.10,-0.79,0.02,9.31,-0.06,-1.21,0.16,-0.96,0.38
3220,0.61,0.03,-0.79,0.10,9.29,-2.34,-0.66,-0.21,-1.77,-0.10,0.59,0.10,-0.80,0.02,9.31,-0.06,-1.21,0.16,-0.96,0.38
3240,0.58,0.03,-0.81,0.09,9.29,-2.34,-0.66,-0.21,-1.77,-0.10,0.59,0.10,-0.80,0.02,9.09,1.51,-1.86,0.16,-0.96,0.38
3260,0.58,0.03,-0.81,0.09,9.18,-1.00,-0.93,-0.21,-1.77,-0.10,0.57,0.10,-0.81,0.02,9.09,1.51,-1.86,0.16,-0.96,0.38
3280,0.54,0.03,-0.84,0.07,9.18,-1.00,-0.93,-0.21,-1.77,-0.10,0.57,0.10,-0.81,0.02,9.51,0.55,-2.75,0.16,-0.96,0.38
3300,0.54,0.03,-0.84,0.07,9.22,-2.34,-1.69,-0.21,-1.77,-0.10,0.55,0.10,-0.83,0.02,9.51,0.55,-2.75,0.16,-0.96,0.38
3320,0.51,0.03,-0.86,0.06,9.22,-2.34,-1.69,-0.21,-1.77,-0.10,0.55,0.10,-0.83,0.02,10.34,0.02,-0.64,0.16,-0.96,0.38
3340,0.51,0.03,-0.86,0.06,11.79,-2.50,0.15,-0.21,-1.77,-0.10,0.52,0.09,-0.85,0.02,10.34,0.02,-0.64,0.16,-0.96,0.38
3360,0.50,0.02,-0.87,0.05,11.79,-2.50,0.15,-0.21,-1.77,-0.10,0.52,0.09,-0.85,0.02,10.27,0.52,-1.44,0.16,-0.96,0.38
3380,0.50,0.02,-0.87,0.05,13.36,-2.04,0.84,-0.21,-1.77,-0.10,0.48,0.09,-0.87,0.01,10.27,0.52,-1.44,0.16,-0.96,0.38
3400,0.50,0.01,-0.87,0.03,13.36,-2.04,0.84,-0.21,-1.77,-0.10,0.48,0.09,-0.87,0.01,14.03,3.20,-1.21,0.16,-0.96,0.38
3420,0.50,0.01,-0.87,0.03,13.36,-2.04,0.84,-1.26,0.85,0.04,0.43,0.08,-0.90,0.01,14.03,3.20,-1.21,0.16,-0.96,0.38
3440,0.52,0.00,-0.85,0.01,13.36,-2.04,0.84,-1.26,0.85,0.04,0.43,0.08,-0.90,0.01,14.03,3.20,-1.21,-0.44,-3.37,0.54
3460,0.52,0.00,-0.85,0.01,17.04,-3.30,8.19,-1.26,0.85,0.04,0.37,0.06,-0.93,-0.00,14.03,3.20,-1.21,-0.44,-3.37,0.54
3480,0.56,0.01,-0.83,0.01,17.04,-3.30,8.19,-1.26,0.85,0.04,0.37,0.06,-0.93,-0.00,21.19,4.92,6.64,-0.44,-3.37,0.54
3500,0.56,0.01,-0.83,0.01,17.04,-3.30,8.19,-0.12,3.28,0.02,0.30,0.04,-0.95,-0.04,21.19,4.92,6.64,-0.44,-3.37,0.54
3520,0.61,-0.01,-0.79,0.01,17.04,-3.30,8.19,-0.12,3.28,0.02,0.30,0.04,-0.95,-0.04,17.93,-6.11,-6.96,-0.44,-3.37,0.54
3540,0.61,-0.01,-0.79,0.01,19.18,-2.04,-8.97,-0.12,3.28,0.02,0.26,0.04,-0.96,-0.04,17.93,-6.11,-6.96,-0.44,-3.37,0.54
3560,0.66,-0.01,-0.75,0.03,19.18,-2.04,-8.97,-0.12,3.28,0.02,0.26,0.04,-0.96,-0.04,8.51,-8.21,-11.29,-0.44,-3.37,0.54
3580,0.66,-0.01,-0.75,0.03,15.50,-0.73,-5.79,-0.12,3.28,0.02,0.28,0.03,-0.96,-0.02,8.51,-8.21,-11.29,-0.44,-3.37,0.54
3600,0.71,-0.03,-0.70,0.05,15.50,-0.73,-5.79,-0.12,3.28,0.02,0.28,0.03,-0.96,-0.02,4.76,-0.36,-1.86,-0.44,-3.37,0.54
3620,0.71,-0.03,-0.70,0.05,9.71,-0.70,-6.90,-0.12,3.28,0.02,0.33,0.03,-0.94,0.02,4.76,-0.36,-1.86,-0.44,-3.37,0.54
3640,0.75,-0.04,-0.66,0.07,9.71,-0.70,-6.90,-0.12,3.28,0.02,0.33,0.03,-0.94,0.02,3.19,0.36,-4.09,-0.44,-3.37,0.54
3660,0.75,-0.04,-0.66,0.07,5.39,-1.35,-4.64,-0.12,3.28,0.02,0.42,0.03,-0.91,0.03,3.19,0.36,-4.09,-0.44,-3.37,0.54
3680,0.77,-0.03,-0.63,0.10,5.39,-1.35,-4.64,-0.12,3.28,0.02,0.42,0.03,-0.91,0.03,4.61,3.89,-3.70,-0.44,-3.37,0.54
3700,0.77,-0.03,-0.63,0.10,3.55,-1.46,-5.07,-0.12,3.28,0.02,0.51,0.03,-0.86,0.02,4.61,3.89,-3.70,-0.44,-3.37,0.54
3720,0.78,0.00,-0.61,0.13,3.55,-1.46,-5.07,-0.12,3.28,0.02,0.51,0.03,-0.86,0.02,7.36,2.32,-5.20,-0.44,-3.37,0.54
3740,0.78,0.00,-0.61,0.13,2.05,1.49,-4.41,-0.12,3.28,0.02,0.61,0.03,-0.80,0.01,7.36,2.32,-5.20,-0.44,-3.37,0.54
3760,0.79,0.02,-0.60,0.15,2.05,1.49,-4.41,-0.12,3.28,0.02,0.61,0.03,-0.80,0.01,9.89,3.81,-8.07,-0.44,-3.37,0.54
3780,0.79,0.02,-0.60,0.15,3.93,2.29,-2.76,-0.12,3.28,0.02,0.69,0.03,-0.72,-0.02,9.89,3.81,-8.07,-0.44,-3.37,0.54
3800,0.79,0.02,-0.59,0.16,3.93,2.29,-2.76,-0.12,3.28,0.02,0.69,0.03,-0.72,-0.02,12.69,0.06,-9.33,-0.44,-3.37,0.54
3820,0.79,0.02,-0.59,0.16,7.04,-0.85,1.99,-0.12,3.28,0.02,0.76,0.02,-0.65,-0.05,12.69,0.06,-9.33,-0.44,-3.37,0.54
3840,0.79,0.01,-0.59,0.16,7.04,-0.85,1.99,-0.12,3.28,0.02,0.76,0.02,-0.65,-0.05,10.00,-0.02,-10.21,-0.44,-3.37,0.54
3860,0.79,0.01,-0.59,0.16,7.04,-0.85,1.99,-0.33,-0.22,0.65,0.79,0.03,-0.61,-0.05,10.00,-0.02,-10.21,-0.44,-3.37,0.54
3880,0.78,0.01,-0.59,0.18,7.04,-0.85,1.99,-0.33,-0.22,0.65,0.79,0.03,-0.61,-0.05,3.22,-1.93,-12.21,-0.44,-3.37,0.54
3900,0.78,0.01,-0.59,0.18,12.75,-1.31,6.81,-0.33,-0.22,0.65,0.78,0.05,-0.62,-0.03,3.22,-1.93,-12.21,-0.44,-3.37,0.54
3920,0.79,0.03,-0.59,0.19,12.75,-1.31,6.81,-0.33,-0.22,0.65,0.78,0.05,-0.62,-0.03,4.53,-0.02,-14.96,-0.44,-3.37,0.54
3940,0.79,0.03,-0.59,0.19,12.75,-1.31,6.81,1.81,-0.21,0.31,0.75,0.09,-0.65,0.00,4.53,-0.02,-14.96,-0.44,-3.37,0.54
3960,0.78,0.04,-0.60,0.20,12.75,-1.31,6.81,1.81,-0.21,0.31,0.75,0.09,-0.65,0.00,26.86,5.30,-0.56,-0.44,-3.37,0.54
3980,0.78,0.04,-0.60,0.20,21.10,7.54,-1.88,1.81,-0.21,0.31,0.71,0.11,-0.69,0.03,26.86,5.30,-0.56,-0.44,-3.37,0.54
4000,0.76,0.02,-0.62,0.18,21.10,7.54,-1.88,1.81,-0.21,0.31,0.71,0.11,-0.69,0.03,6.33,-0.29,-8.68,-0.44,-3.37,0.54
4020,0.76,0.02,-0.62,0.18,21.10,7.54,-1.88,-3.31,-0.36,0.38,0.68,0.10,-0.72,0.04,6.33,-0.29,-8.68,-0.44,-3.37,0.54
4040,0.75,-0.02,-0.64,0.17,21.10,7.54,-1.88,-3.31,-0.36,0.38,0.68,0.10,-0.72,0.04,12.34,-1.93,-6.73,-0.44,-3.37,0.54
4060,0.75,-0.02,-0.64,0.17,12.16,-9.73,-4.41,-3.31,-0.36,0.38,0.66,0.10,-0.74,0.05,12.34,-1.93,-6.73,-0.44,-3.37,0.54
4080,0.72,0.00,-0.67,0.17,12.16,-9.73,-4.41,-3.31,-0.36,0.38,0.66,0.10,-0.74,0.05,8.85,1.78,-3.62,-0.44,-3.37,0.54
4100,0.72,0.00,-0.67,0.17,9.14,-1.31,-2.99,-3.31,-0.36,0.38,0.64,0.10,-0.76,0.05,8.85,1.78,-3.62,-0.44,-3.37,0.54
4120,0.69,0.01,-0.70,0.16,9.14,-1.31,-2.99,-3.31,-0.36,0.38,0.64,0.10,-0.76,0.05,10.28,0.86,-2.94,-0.44,-3.37,0.54
4140,0.69,0.01,-0.70,0.16,9.03,-0.62,-1.96,-3.31,-0.36,0.38,0.63,0.08,-0.77,0.03,10.28,0.86,-2.94,-0.44,-3.37,0.54
4160,0.66,0.00,-0.74,0.14,9.03,-0.62,-1.96,-3.31,-0.36,0.38,0.63,0.08,-0.77,0.03,9.20,-1.05,-1.52,-0.44,-3.37,0.54
4180,0.66,0.00,-0.74,0.14,8.30,-2.42,-0.96,-3.31,-0.36,0.38,0.62,0.08,-0.78,0.03,9.20,-1.05,-1.52,-0.44,-3.37,0.54
4200,0.62,0.00,-0.77,0.12,8.30,-2.42,-0.96,-3.31,-0.36,0.38,0.62,0.08,-0.78,0.03,9.20,-1.05,-1.52,-0.23,-0.82,0.15
4220,0.62,0.00,-0.77,0.12,9.18,-2.50,-0.46,-3.31,-0.36,0.38,0.61,0.07,-0.79,0.02,9.20,-1.05,-1.52,-0.23,-0.82,0.15
4240,0.58,0.01,-0.81,0.11,9.18,-2.50,-0.46,-3.31,-0.36,0.38,0.61,0.07,-0.79,0.02,8.89,-0.55,-1.33,-0.23,-0.82,0.15
4260,0.58,0.01,-0.81,0.11,8.72,-3.22,-0.70,-3.31,-0.36,0.38,0.59,0.06,-0.81,0.02,8.89,-0.55,-1.33,-0.23,-0.82,0.15
4280,0.53,-0.00,-0.84,0.08,8.72,-3.22,-0.70,-3.31,-0.36,0.38,0.59,0.06,-0.81,0.02,9.86,1.09,-1.44,-0.23,-0.82,0.15
4300,0.53,-0.00,-0.84,0.08,8.72,-3.22,-0.70,-1.02,-2.40,-0.15,0.56,0.05,-0.83,0.01,9.86,1.09,-1.44,-0.23,-0.82,0.15
4320,0.50,-0.01,-0.86,0.07,8.72,-3.22,-0.70,-1.02,-2.40,-0.15,0.56,0.05,-0.83,0.01,8.77,0.02,0.28,-0.23,-0.82,0.15
4340,0.50,-0.01,-0.86,0.07,8.72,-3.22,-0.70,-0.67,-1.81,0.06,0.53,0.05,-0.85,0.02,8.77,0.02,0.28,-0.23,-0.82,0.15
4360,0.48,-0.04,-0.87,0.03,8.72,-3.22,-0.70,-0.67,-1.81,0.06,0.53,0.05,-0.85,0.02,8.77,0.02,0.28,0.07,-2.23,0.29
4380,0.48,-0.04,-0.87,0.03,8.72,-3.22,-0.70,-2.02,-0.06,0.33,0.48,0.04,-0.88,0.01,8.77,0.02,0.28,0.07,-2.23,0.29
4400,0.49,-0.05,-0.87,0.01,8.72,-3.22,-0.70,-2.02,-0.06,0.33,0.48,0.04,-0.88,0.01,15.13,2.78,0.59,0.07,-2.23,0.29
4420,0.49,-0.05,-0.87,0.01,16.65,-3.84,6.09,-2.02,-0.06,0.33,0.41,0.02,-0.91,0.01,15.13,2.78,0.59,0.07,-2.23,0.29
4440,0.53,-0.06,-0.85,-0.01,16.65,-3.84,6.09,-2.02,-0.06,0.33,0.41,0.02,-0.91,0.01,22.80,5.57,5.84,0.07,-2.23,0.29
4460,0.53,-0.06,-0.85,-0.01,20.25,-2.34,8.04,-2.02,-0.06,0.33,0.34,0.00,-0.94,-0.01,22.80,5.57,5.84,0.07,-2.23,0.29
4480,0.58,-0.06,-0.81,-0.02,20.25,-2.34,8.04,-2.02,-0.06,0.33,0.34,0.00,-0.94,-0.01,19.32,-4.43,-4.96,0.07,-2.23,0.29
4500,0.58,-0.06,-0.81,-0.02,14.81,-7.29,-8.13,-2.02,-0.06,0.33,0.27,-0.02,-0.96,-0.04,19.32,-4.43,-4.96,0.07,-2.23,0.29
4520,0.63,-0.07,-0.77,-0.01,14.81,-7.29,-8.13,-2.02,-0.06,0.33,0.27,-0.02,-0.96,-0.04,16.74,-11.28,-8.11,0.07,-2.23,0.29
4540,0.63,-0.07,-0.77,-0.01,23.16,-4.76,-5.64,-2.02,-0.06,0.33,0.27,-0.02,-0.96,-0.01,16.74,-11.28,-8.11,0.07,-2.23,0.29
4560,0.69,-0.07,-0.72,0.02,23.16,-4.76,-5.64,-2.02,-0.06,0.33,0.27,-0.02,-0.96,-0.01,9.05,6.30,3.46,0.07,-2.23,0.29
4580,0.69,-0.07,-0.72,0.02,14.89,1.45,-7.32,-2.02,-0.06,0.33,0.31,-0.02,-0.95,0.01,9.05,6.30,3.46,0.07,-2.23,0.29
4600,0.73,-0.08,-0.67,0.03,14.89,1.45,-7.32,-2.02,-0.06,0.33,0.31,-0.02,-0.95,0.01,3.22,-1.59,-3.55,0.07,-2.23,0.29
4620,0.73,-0.08,-0.67,0.03,7.88,-0.01,-7.86,-2.02,-0.06,0.33,0.39,-0.02,-0.92,0.02,3.22,-1.59,-3.55,0.07,-2.23,0.29
4640,0.76,-0.08,-0.64,0.05,7.88,-0.01,-7.86,-2.02,-0.06,0.33,0.39,-0.02,-0.92,0.02,2.73,0.63,-3.93,0.07,-2.23,0.29
4660,0.76,-0.08,-0.64,0.05,2.67,-2.07,-6.29,-2.02,-0.06,0.33,0.49,-0.01,-0.87,0.03,2.73,0.63,-3.93,0.07,-2.23,0.29
4680,0.78,-0.06,-0.62,0.08,2.67,-2.07,-6.29,-2.02,-0.06,0.33,0.49,-0.01,-0.87,0.03,7.02,5.08,-4.93,0.07,-2.23,0.29
4700,0.78,-0.06,-0.62,0.08,1.29,-1.54,-6.90,-2.02,-0.06,0.33,0.59,0.01,-0.81,-0.00,7.02,5.08,-4.93,0.07,-2.23,0.29
4720,0.78,-0.03,-0.61,0.11,1.29,-1.54,-6.90,-2.02,-0.06,0.33,0.59,0.01,-0.81,-0.00,11.08,1.29,-7.80,0.07,-2.23,0.29
4740,0.78,-0.03,-0.61,0.11,2.59,1.30,-4.41,-2.02,-0.06,0.33,0.69,0.01,-0.73,-0.04,11.08,1.29,-7.80,0.07,-2.23,0.29
4760,0.78,-0.01,-0.61,0.13,2.59,1.30,-4.41,-2.02,-0.06,0.33,0.69,0.01,-0.73,-0.04,13.03,-1.17,-9.56,0.07,-2.23,0.29
4780,0.78,-0.01,-0.61,0.13,2.59,1.30,-4.41,0.76,0.57,0.34,0.76,0.03,-0.64,-0.06,13.03,-1.17,-9.56,0.07,-2.23,0.29
4800,0.79,-0.01,-0.59,0.14,2.59,1.30,-4.41,0.76,0.57,0.34,0.76,0.03,-0.64,-0.06,12.54,2.09,-11.71,0.07,-2.23,0.29
4820,0.79,-0.01,-0.59,0.14,11.21,-2.23,8.77,0.76,0.57,0.34,0.80,0.02,-0.59,-0.08,12.54,2.09,-11.71,0.07,-2.23,0.29
4840,0.79,-0.00,-0.59,0.16,11.21,-2.23,8.77,0.76,0.57,0.34,0.80,0.02,-0.59,-0.08,2.88,-3.58,-13.73,0.07,-2.23,0.29
4860,0.79,-0.00,-0.59,0.16,11.21,-2.23,8.77,1.13,-0.55,0.11,0.80,0.03,-0.60,-0.06,2.88,-3.58,-13.73,0.07,-2.23,0.29
4880,0.79,0.01,-0.59,0.17,11.21,-2.23,8.77,1.13,-0.55,0.11,0.80,0.03,-0.60,-0.06,5.45,-2.43,-13.43,0.07,-2.23,0.29
4900,0.79,0.01,-0.59,0.17,4.39,1.49,1.76,1.13,-0.55,0.11,0.77,0.07,-0.63,-0.03,5.45,-2.43,-13.43,0.07,-2.23,0.29
4920,0.77,0.00,-0.62,0.16,4.39,1.49,1.76,1.13,-0.55,0.11,0.77,0.07,-0.63,-0.03,14.71,4.31,-0.45,0.07,-2.23,0.29
4940,0.77,0.00,-0.62,0.16,4.39,1.49,1.76,-1.10,2.58,0.59,0.73,0.09,-0.67,0.00,14.71,4.31,-0.45,0.07,-2.23,0.29
4960,0.76,-0.01,-0.63,0.17,4.39,1.49,1.76,-1.10,2.58,0.59,0.73,0.09,-0.67,0.00,11.54,-1.78,-6.50,0.07,-2.23,0.29
4980,0.76,-0.01,-0.63,0.17,6.27,8.50,-20.69,-1.10,2.58,0.59,0.70,0.09,-0.71,0.02,11.54,-1.78,-6.50,0.07,-2.23,0.29
5000,0.76,-0.04,-0.64,0.14,6.27,8.50,-20.69,-1.10,2.58,0.59,0.70,0.09,-0.71,0.02,7.13,-5.34,-7.96,0.07,-2.23,0.29
5020,0.76,-0.04,-0.64,0.14,2.90,-10.43,-6.29,-1.10,2.58,0.59,0.67,0.08,-0.74,0.02,7.13,-5.34,-7.96,0.07,-2.23,0.29
5040,0.73,-0.04,-0.66,0.14,2.90,-10.43,-6.29,-1.10,2.58,0.59,0.67,0.08,-0.74,0.02,11.08,-2.89,-4.62,0.07,-2.23,0.29
5060,0.73,-0.04,-0.66,0.14,9.64,0.34,-4.03,-1.10,2.58,0.59,0.65,0.09,-0.75,0.03,11.08,-2.89,-4.62,0.07,-2.23,0.29
5080,0.69,-0.02,-0.71,0.13,9.64,0.34,-4.03,-1.10,2.58,0.59,0.65,0.09,-0.75,0.03,10.74,0.44,-3.24,0.07,-2.23,0.29
5100,0.69,-0.02,-0.71,0.13,9.91,-0.66,-2.27,-1.10,2.58,0.59,0.64,0.08,-0.76,0.03,10.74,0.44,-3.24,0.07,-2.23,0.29
5120,0.68,-0.02,-0.72,0.13,9.91,-0.66,-2.27,-1.10,2.58,0.59,0.64,0.08,-0.76,0.03,9.47,-0.36,-1.90,0.07,-2.23,0.29
5140,0.68,-0.02,-0.72,0.13,8.60,-3.76,-1.77,-1.10,2.58,0.59,0.63,0.07,-0.77,0.02,9.47,-0.36,-1.90,0.07,-2.23,0.29
5160,0.62,-0.01,-0.78,0.12,8.60,-3.76,-1.77,-1.10,2.58,0.59,0.63,0.07,-0.77,0.02,8.89,0.17,-2.02,0.07,-2.23,0.29
5180,0.62,-0.01,-0.78,0.12,9.45,-1.04,-1.50,-1.10,2.58,0.59,0.62,0.06,-0.79,0.02,8.89,0.17,-2.02,0.07,-2.23,0.29
5200,0.59,-0.02,-0.80,0.11,9.45,-1.04,-1.50,-1.10,2.58,0.59,0.62,0.06,-0.79,0.02,9.82,1.36,-2.25,0.07,-2.23,0.29
5220,0.59,-0.02,-0.80,0.11,9.45,-1.04,-1.50,-1.56,-2.92,-0.06,0.60,0.05,-0.80,0.01,9.82,1.36,-2.25,0.07,-2.23,0.29
5240,0.55,-0.03,-0.83,0.08,9.45,-1.04,-1.50,-1.56,-2.92,-0.06,0.60,0.05,-0.80,0.01,8.47,-0.67,-0.91,0.07,-2.23,0.29
5260,0.55,-0.03,-0.83,0.08,9.64,-3.15,0.84,-1.56,-2.92,-0.06,0.57,0.03,-0.82,0.00,8.47,-0.67,-0.91,0.07,-2.23,0.29
5280,0.50,-0.04,-0.86,0.06,9.64,-3.15,0.84,-1.56,-2.92,-0.06,0.57,0.03,-0.82,0.00,8.13,0.06,0.51,0.07,-2.23,0.29
5300,0.50,-0.04,-0.86,0.06,9.64,-3.15,0.84,-1.01,-1.32,0.12,0.54,0.03,-0.84,0.01,8.13,0.06,0.51,0.07,-2.23,0.29
5320,0.49,-0.05,-0.87,0.05,9.64,-3.15,0.84,-1.01,-1.32,0.12,0.54,0.03,-0.84,0.01,11.89,2.24,-0.45,0.07,-2.23,0.29
5340,0.49,-0.05,-0.87,0.05,13.73,-2.42,0.03,-1.01,-1.32,0.12,0.49,0.02,-0.87,0.01,11.89,2.24,-0.45,0.07,-2.23,0.29
5360,0.50,-0.07,-0.87,0.02,13.73,-2.42,0.03,-1.01,-1.32,0.12,0.49,0.02,-0.87,0.01,14.56,2.66,-0.79,0.07,-2.23,0.29
5380,0.50,-0.07,-0.87,0.02,16.65,-3.68,3.94,-1.01,-1.32,0.12,0.43,0.01,-0.90,0.01,14.56,2.66,-0.79,0.07,-2.23,0.29
5400,0.55,-0.08,-0.83,-0.01,16.65,-3.68,3.94,-1.01,-1.32,0.12,0.43,0.01,-0.90,0.01,22.07,7.41,4.92,0.07,-2.23,0.29
5420,0.55,-0.08,-0.83,-0.01,18.30,-0.08,10.53,-1.01,-1.32,0.12,0.36,-0.02,-0.93,-0.01,22.07,7.41,4.92,0.07,-2.23,0.29
5440,0.60,-0.09,-0.79,-0.04,18.30,-0.08,10.53,-1.01,-1.32,0.12,0.36,-0.02,-0.93,-0.01,21.54,4.77,3.19,0.07,-2.23,0.29
5460,0.60,-0.09,-0.79,-0.04,18.30,-0.08,10.53,-1.47,3.53,0.26,0.29,-0.04,-0.95,-0.05,21.54,4.77,3.19,0.07,-2.23,0.29
5480,0.62,-0.10,-0.78,-0.03,18.30,-0.08,10.53,-1.47,3.53,0.26,0.29,-0.04,-0.95,-0.05,21.54,4.77,3.19,-2.56,-3.83,0.12
5500,0.62,-0.10,-0.78,-0.03,20.71,-4.45,-6.10,-1.47,3.53,0.26,0.28,-0.03,-0.96,-0.01,21.54,4.77,3.19,-2.56,-3.83,0.12
5520,0.70,-0.09,-0.71,0.00,20.71,-4.45,-6.10,-1.47,3.53,0.26,0.28,-0.03,-0.96,-0.01,6.10,0.71,0.55,-2.56,-3.83,0.12
5540,0.70,-0.09,-0.71,0.00,14.84,0.99,-7.09,-1.47,3.53,0.26,0.31,-0.04,-0.95,-0.00,6.10,0.71,0.55,-2.56,-3.83,0.12
5560,0.72,-0.10,-0.69,0.01,14.84,0.99,-7.09,-1.47,3.53,0.26,0.31,-0.04,-0.95,-0.00,6.10,0.71,0.55,0.18,2.18,0.10
5580,0.72,-0.10,-0.69,0.01,8.57,-1.27,-8.73,-1.47,3.53,0.26,0.39,-0.03,-0.92,0.00,6.10,0.71,0.55,0.18,2.18,0.10
5600,0.77,-0.09,-0.64,0.05,8.57,-1.27,-8.73,-1.47,3.53,0.26,0.39,-0.03,-0.92,0.00,3.95,-0.36,-3.62,0.18,2.18,0.10
5620,0.77,-0.09,-0.64,0.05,3.55,-2.34,-6.29,-1.47,3.53,0.26,0.49,-0.02,-0.87,0.01,3.95,-0.36,-3.62,0.18,2.18,0.10
5640,0.78,-0.06,-0.62,0.08,3.55,-2.34,-6.29,-1.47,3.53,0.26,0.49,-0.02,-0.87,0.01,7.20,4.50,-4.47,0.18,2.18,0.10
5660,0.78,-0.06,-0.62,0.08,3.55,-2.34,-6.29,2.51,0.74,0.29,0.59,0.00,-0.81,-0.02,7.20,4.50,-4.47,0.18,2.18,0.10
5680,0.78,-0.04,-0.61,0.10,3.55,-2.34,-6.29,2.51,0.74,0.29,0.59,0.00,-0.81,-0.02,9.28,3.39,-7.04,0.18,2.18,0.10
5700,0.78,-0.04,-0.61,0.10,1.82,1.30,-3.68,2.51,0.74,0.29,0.68,0.01,-0.73,-0.06,9.28,3.39,-7.04,0.18,2.18,0.10
5720,0.79,-0.02,-0.60,0.13,1.82,1.30,-3.68,2.51,0.74,0.29,0.68,0.01,-0.73,-0.06,12.49,-1.86,-11.36,0.18,2.18,0.10
5740,0.79,-0.02,-0.60,0.13,1.82,1.30,-3.68,0.78,0.90,0.17,0.75,0.03,-0.65,-0.07,12.49,-1.86,-11.36,0.18,2.18,0.10
5760,0.80,-0.02,-0.59,0.13,1.82,1.30,-3.68,0.78,0.90,0.17,0.75,0.03,-0.65,-0.07,12.49,-1.86,-11.36,0.10,5.55,-1.03
5780,0.80,-0.02,-0.59,0.13,8.88,-0.66,4.63,0.78,0.90,0.17,0.79,0.03,-0.60,-0.08,12.49,-1.86,-11.36,0.10,5.55,-1.03
5800,0.79,-0.01,-0.59,0.15,8.88,-0.66,4.63,0.78,0.90,0.17,0.79,0.03,-0.60,-0.08,12.49,-1.86,-11.36,-0.87,2.98,-0.29
5820,0.79,-0.01,-0.59,0.15,8.88,-0.66,4.63,0.91,-0.52,0.34,0.80,0.03,-0.60,-0.08,12.49,-1.86,-11.36,-0.87,2.98,-0.29
5840,0.79,-0.00,-0.59,0.16,8.88,-0.66,4.63,0.91,-0.52,0.34,0.80,0.03,-0.60,-0.08,3.41,-2.59,-13.63,-0.87,2.98,-0.29
5860,0.79,-0.00,-0.59,0.16,15.39,-0.16,11.98,0.91,-0.52,0.34,0.77,0.04,-0.63,-0.05,3.41,-2.59,-13.63,-0.87,2.98,-0.29
5880,0.78,-0.02,-0.61,0.15,15.39,-0.16,11.98,0.91,-0.52,0.34,0.77,0.04,-0.63,-0.05,19.74,15.23,11.05,-0.87,2.98,-0.29
5900,0.78,-0.02,-0.61,0.15,15.39,-0.16,11.98,-0.81,-1.07,-0.26,0.74,0.09,-0.66,-0.01,19.74,15.23,11.05,-0.87,2.98,-0.29
5920,0.75,-0.01,-0.64,0.16,15.39,-0.16,11.98,-0.81,-1.07,-0.26,0.74,0.09,-0.66,-0.01,11.39,1.71,-4.36,-0.87,2.98,-0.29
5940,0.75,-0.01,-0.64,0.16,1.40,10.18,2.33,-0.81,-1.07,-0.26,0.71,0.09,-0.70,0.01,11.39,1.71,-4.36,-0.87,2.98,-0.29
5960,0.75,-0.04,-0.65,0.13,1.40,10.18,2.33,-0.81,-1.07,-0.26,0.71,0.09,-0.70,0.01,5.68,-2.74,-6.69,-0.87,2.98,-0.29
5980,0.75,-0.04,-0.65,0.13,2.97,-10.16,-6.98,-0.81,-1.07,-0.26,0.68,0.08,-0.73,0.01,5.68,-2.74,-6.69,-0.87,2.98,-0.29
6000,0.72,-0.04,-0.68,0.14,2.97,-10.16,-6.98,-0.81,-1.07,-0.26,0.68,0.08,-0.73,0.01,13.72,-0.40,-6.15,-0.87,2.98,-0.29
6020,0.72,-0.04,-0.68,0.14,10.94,-3.53,-3.99,-0.81,-1.07,-0.26,0.66,0.08,-0.74,0.02,13.72,-0.40,-6.15,-0.87,2.98,-0.29
6040,0.69,-0.03,-0.71,0.13,10.94,-3.53,-3.99,-0.81,-1.07,-0.26,0.66,0.08,-0.74,0.02,8.09,4.23,-4.36,-0.87,2.98,-0.29
6060,0.69,-0.03,-0.71,0.13,9.37,-0.16,-3.22,-0.81,-1.07,-0.26,0.65,0.07,-0.76,0.02,8.09,4.23,-4.36,-0.87,2.98,-0.29
6080,0.66,-0.03,-0.74,0.11,9.37,-0.16,-3.22,-0.81,-1.07,-0.26,0.65,0.07,-0.76,0.02,9.36,-0.55,-2.67,-0.87,2.98,-0.29
6100,0.66,-0.03,-0.74,0.11,8.42,-1.00,-2.73,-0.81,-1.07,-0.26,0.64,0.05,-0.77,0.00,9.36,-0.55,-2.67,-0.87,2.98,-0.29
6120,0.62,-0.04,-0.78,0.10,8.42,-1.00,-2.73,-0.81,-1.07,-0.26,0.64,0.05,-0.77,0.00,8.81,-1.09,-0.87,-0.87,2.98,-0.29
6140,0.62,-0.04,-0.78,0.10,7.38,-3.68,-1.42,-0.81,-1.07,-0.26,0.62,0.03,-0.78,-0.00,8.81,-1.09,-0.87,-0.87,2.98,-0.29
6160,0.58,-0.04,-0.81,0.08,7.38,-3.68,-1.42,-0.81,-1.07,-0.26,0.62,0.03,-0.78,-0.00,9.82,-0.75,-0.06,-0.87,2.98,-0.29
6180,0.58,-0.04,-0.81,0.08,7.38,-3.68,-1.42,-1.24,-2.72,-0.06,0.61,0.03,-0.79,-0.00,9.82,-0.75,-0.06,-0.87,2.98,-0.29
6200,0.53,-0.05,-0.84,0.06,7.38,-3.68,-1.42,-1.24,-2.72,-0.06,0.61,0.03,-0.79,-0.00,8.67,3.24,-1.90,-0.87,2.98,-0.29
6220,0.53,-0.05,-0.84,0.06,9.68,-0.08,0.41,-1.24,-2.72,-0.06,0.58,0.01,-0.81,-0.02,8.67,3.24,-1.90,-0.87,2.98,-0.29
6240,0.51,-0.06,-0.86,0.05,9.68,-0.08,0.41,-1.24,-2.72,-0.06,0.58,0.01,-0.81,-0.02,7.90,-3.12,1.12,-0.87,2.98,-0.29
6260,0.51,-0.06,-0.86,0.05,9.68,-0.08,0.41,-0.44,-1.23,0.10,0.55,0.01,-0.84,-0.00,7.90,-3.12,1.12,-0.87,2.98,-0.29
6280,0.50,-0.08,-0.86,0.03,9.68,-0.08,0.41,-0.44,-1.23,0.10,0.55,0.01,-0.84,-0.00,7.90,-3.12,1.12,0.99,-2.06,0.25
6300,0.50,-0.08,-0.86,0.03,12.25,-2.04,1.03,-0.44,-1.23,0.10,0.50,0.00,-0.87,-0.00,7.90,-3.12,1.12,0.99,-2.06,0.25
6320,0.51,-0.10,-0.85,-0.01,12.25,-2.04,1.03,-0.44,-1.23,0.10,0.50,0.00,-0.87,-0.00,14.37,2.51,-1.33,0.99,-2.06,0.25
6340,0.51,-0.10,-0.85,-0.01,16.35,-1.35,2.64,-0.44,-1.23,0.10,0.44,-0.01,-0.90,0.01,14.37,2.51,-1.33,0.99,-2.06,0.25
6360,0.55,-0.10,-0.83,-0.02,16.35,-1.35,2.64,-0.44,-1.23,0.10,0.44,-0.01,-0.90,0.01,14.37,2.51,-1.33,-0.05,-3.61,0.80
6380,0.55,-0.10,-0.83,-0.02,20.60,-2.96,9.80,-0.44,-1.23,0.10,0.37,-0.04,-0.93,-0.00,14.37,2.51,-1.33,-0.05,-3.61,0.80
6400,0.59,-0.12,-0.79,-0.06,20.60,-2.96,9.80,-0.44,-1.23,0.10,0.37,-0.04,-0.93,-0.00,24.29,8.10,8.36,-0.05,-3.61,0.80
6420,0.59,-0.12,-0.79,-0.06,14.12,-10.31,-8.32,-0.44,-1.23,0.10,0.29,-0.06,-0.95,-0.04,24.29,8.10,8.36,-0.05,-3.61,0.80
6440,0.65,-0.11,-0.75,-0.03,14.12,-10.31,-8.32,-0.44,-1.23,0.10,0.29,-0.06,-0.95,-0.04,21.19,-9.79,-2.44,-0.05,-3.61,0.80
6460,0.65,-0.11,-0.75,-0.03,20.71,-5.45,-7.67,-0.44,-1.23,0.10,0.27,-0.05,-0.96,-0.00,21.19,-9.79,-2.44,-0.05,-3.61,0.80
6480,0.70,-0.10,-0.71,-0.01,20.71,-5.45,-7.67,-0.44,-1.23,0.10,0.27,-0.05,-0.96,-0.00,7.86,-10.59,-15.30,-0.05,-3.61,0.80
6500,0.70,-0.10,-0.71,-0.01,15.08,1.34,-7.09,-0.44,-1.23,0.10,0.31,-0.05,-0.95,0.00,7.86,-10.59,-15.30,-0.05,-3.61,0.80
6520,0.74,-0.10,-0.67,0.01,15.08,1.34,-7.09,-0.44,-1.23,0.10,0.31,-0.05,-0.95,0.00,3.30,-1.55,-0.06,-0.05,-3.61,0.80
6540,0.74,-0.10,-0.67,0.01,9.33,-1.20,-8.43,-0.44,-1.23,0.10,0.39,-0.04,-0.92,-0.00,3.30,-1.55,-0.06,-0.05,-3.61,0.80
6560,0.76,-0.09,-0.64,0.03,9.33,-1.20,-8.43,-0.44,-1.23,0.10,0.39,-0.04,-0.92,-0.00,4.68,-2.32,-3.70,-0.05,-3.61,0.80
6580,0.76,-0.09,-0.64,0.03,2.75,-1.50,-6.90,-0.44,-1.23,0.10,0.49,-0.02,-0.87,-0.00,4.68,-2.32,-3.70,-0.05,-3.61,0.80
6600,0.77,-0.06,-0.63,0.07,2.75,-1.50,-6.90,-0.44,-1.23,0.10,0.49,-0.02,-0.87,-0.00,5.21,2.39,-4.28,-0.05,-3.61,0.80
6620,0.77,-0.06,-0.63,0.07,2.75,-1.50,-6.90,2.53,0.45,0.20,0.60,-0.01,-0.80,-0.04,5.21,2.39,-4.28,-0.05,-3.61,0.80
6640,0.77,-0.03,-0.63,0.09,2.75,-1.50,-6.90,2.53,0.45,0.20,0.60,-0.01,-0.80,-0.04,9.16,2.55,-5.73,-0.05,-3.61,0.80
6660,0.77,-0.03,-0.63,0.09,1.06,2.29,-4.14,2.53,0.45,0.20,0.69,-0.02,-0.72,-0.09,9.16,2.55,-5.73,-0.05,-3.61,0.80
6680,0.78,-0.03,-0.61,0.11,1.06,2.29,-4.14,2.53,0.45,0.20,0.69,-0.02,-0.72,-0.09,14.91,-2.59,-10.64,-0.05,-3.61,0.80
6700,0.78,-0.03,-0.61,0.11,1.06,2.29,-4.14,0.52,1.14,0.74,0.77,0.01,-0.64,-0.10,14.91,-2.59,-10.64,-0.05,-3.61,0.80
6720,0.79,-0.04,-0.59,0.12,1.06,2.29,-4.14,0.52,1.14,0.74,0.77,0.01,-0.64,-0.10,9.96,0.75,-11.74,-0.05,-3.61,0.80
6740,0.79,-0.04,-0.59,0.12,11.02,-1.73,7.81,0.52,1.14,0.74,0.80,0.02,-0.59,-0.10,9.96,0.75,-11.74,-0.05,-3.61,0.80
6760,0.79,-0.02,-0.60,0.14,11.02,-1.73,7.81,0.52,1.14,0.74,0.80,0.02,-0.59,-0.10,4.37,-3.85,-15.30,-0.05,-3.61,0.80
6780,0.79,-0.02,-0.60,0.14,11.02,-1.73,7.81,1.80,-0.64,-0.07,0.79,0.03,-0.61,-0.08,4.37,-3.85,-15.30,-0.05,-3.61,0.80
6800,0.78,-0.01,-0.60,0.15,11.02,-1.73,7.81,1.80,-0.64,-0.07,0.79,0.03,-0.61,-0.08,4.26,-1.47,-16.04,-0.05,-3.61,0.80
6820,0.78,-0.01,-0.60,0.15,11.90,-2.84,3.86,1.80,-0.64,-0.07,0.76,0.08,-0.65,-0.04,4.26,-1.47,-16.04,-0.05,-3.61,0.80
6840,0.78,-0.00,-0.61,0.15,11.90,-2.84,3.86,1.80,-0.64,-0.07,0.76,0.08,-0.65,-0.04,15.52,4.12,-13.09,-0.05,-3.61,0.80
6860,0.78,-0.00,-0.61,0.15,42.09,-5.21,12.45,1.80,-0.64,-0.07,0.72,0.10,-0.69,0.00,15.52,4.12,-13.09,-0.05,-3.61,0.80
6880,0.76,-0.04,-0.63,0.12,42.09,-5.21,12.45,1.80,-0.64,-0.07,0.72,0.10,-0.69,0.00,7.71,-2.43,-7.99,-0.05,-3.61,0.80
6900,0.76,-0.04,-0.63,0.12,0.52,2.79,-24.87,1.80,-0.64,-0.07,0.69,0.09,-0.72,0.01,7.71,-2.43,-7.99,-0.05,-3.61,0.80
6920,0.74,-0.05,-0.66,0.13,0.52,2.79,-24.87,1.80,-0.64,-0.07,0.69,0.09,-0.72,0.01,7.71,-2.43,-7.99,-0.69,-2.20,0.91
6940,0.74,-0.05,-0.66,0.13,11.67,-10.62,-6.13,1.80,-0.64,-0.07,0.66,0.09,-0.74,0.02,7.71,-2.43,-7.99,-0.69,-2.20,0.91
6960,0.71,-0.03,-0.69,0.13,11.67,-10.62,-6.13,1.80,-0.64,-0.07,0.66,0.09,-0.74,0.02,7.71,-2.43,-7.99,0.52,-1.41,0.40
6980,0.71,-0.03,-0.69,0.13,8.95,2.79,-4.68,1.80,-0.64,-0.07,0.65,0.08,-0.76,0.02,7.71,-2.43,-7.99,0.52,-1.41,0.40
7000,0.68,-0.02,-0.73,0.12,8.95,2.79,-4.68,1.80,-0.64,-0.07,0.65,0.08,-0.76,0.02,10.46,0.10,-3.20,0.52,-1.41,0.40
7020,0.68,-0.02,-0.73,0.12,8.61,-0.85,-2.84,1.80,-0.64,-0.07,0.64,0.06,-0.77,0.01,10.46,0.10,-3.20,0.52,-1.41,0.40
7040,0.63,-0.03,-0.77,0.10,8.61,-0.85,-2.84,1.80,-0.64,-0.07,0.64,0.06,-0.77,0.01,10.46,0.10,-3.20,-1.13,-0.90,0.37
7060,0.63,-0.03,-0.77,0.10,8.61,-0.85,-2.84,-0.92,-3.06,-0.13,0.63,0.05,-0.78,-0.00,10.46,0.10,-3.20,-1.13,-0.90,0.37
7080,0.58,-0.04,-0.81,0.08,8.61,-0.85,-2.84,-0.92,-3.06,-0.13,0.63,0.05,-0.78,-0.00,9.23,0.02,-0.79,-1.13,-0.90,0.37
7100,0.58,-0.04,-0.81,0.08,8.95,-2.00,-0.23,-0.92,-3.06,-0.13,0.61,0.04,-0.79,-0.01,9.23,0.02,-0.79,-1.13,-0.90,0.37
7120,0.53,-0.04,-0.85,0.06,8.95,-2.00,-0.23,-0.92,-3.06,-0.13,0.61,0.04,-0.79,-0.01,9.23,0.02,-0.79,-0.61,-0.99,0.29
7140,0.53,-0.04,-0.85,0.06,9.37,-3.15,-0.77,-0.92,-3.06,-0.13,0.59,0.02,-0.81,-0.02,9.23,0.02,-0.79,-0.61,-0.99,0.29
7160,0.50,-0.05,-0.86,0.05,9.37,-3.15,-0.77,-0.92,-3.06,-0.13,0.59,0.02,-0.81,-0.02,9.23,0.02,-0.79,-0.75,-1.47,0.35
7180,0.50,-0.05,-0.86,0.05,11.18,-0.66,1.99,-0.92,-3.06,-0.13,0.56,0.02,-0.83,-0.01,9.23,0.02,-0.79,-0.75,-1.47,0.35
7200,0.48,-0.07,-0.87,0.03,11.18,-0.66,1.99,-0.92,-3.06,-0.13,0.56,0.02,-0.83,-0.01,10.62,0.44,-0.06,-0.75,-1.47,0.35
7220,0.48,-0.07,-0.87,0.03,12.89,-1.20,1.22,-0.92,-3.06,-0.13,0.51,0.01,-0.86,-0.01,10.62,0.44,-0.06,-0.75,-1.47,0.35
7240,0.49,-0.10,-0.87,-0.01,12.89,-1.20,1.22,-0.92,-3.06,-0.13,0.51,0.01,-0.86,-0.01,14.83,2.93,0.62,-0.75,-1.47,0.35
7260,0.49,-0.10,-0.87,-0.01,18.10,-4.26,3.44,-0.92,-3.06,-0.13,0.45,-0.01,-0.89,-0.01,14.83,2.93,0.62,-0.75,-1.47,0.35
7280,0.53,-0.10,-0.84,-0.03,18.10,-4.26,3.44,-0.92,-3.06,-0.13,0.45,-0.01,-0.89,-0.01,21.87,5.69,4.15,-0.75,-1.47,0.35
7300,0.53,-0.10,-0.84,-0.03,18.10,-4.26,3.44,-0.33,3.05,-0.28,0.38,-0.03,-0.93,-0.01,21.87,5.69,4.15,-0.75,-1.47,0.35
7322,0.59,-0.11,-0.80,-0.05,18.10,-4.26,3.44,-0.33,3.05,-0.28,0.38,-0.03,-0.93,-0.01,21.87,5.69,4.15,-0.64,-3.89,0.96
7340,0.59,-0.11,-0.80,-0.05,18.10,-4.26,3.44,-1.84,3.36,-0.10,0.30,-0.06,-0.95,-0.05,21.87,5.69,4.15,-0.64,-3.89,0.96
7360,0.64,-0.12,-0.76,-0.05,18.10,-4.26,3.44,-1.84,3.36,-0.10,0.30,-0.06,-0.95,-0.05,21.87,5.69,4.15,-2.94,-4.15,0.51
7380,0.64,-0.12,-0.76,-0.05,20.10,-6.21,-8.59,-1.84,3.36,-0.10,0.28,-0.07,-0.96,-0.03,21.87,5.69,4.15,-2.94,-4.15,0.51
7400,0.69,-0.11,-0.71,-0.02,20.10,-6.21,-8.59,-1.84,3.36,-0.10,0.28,-0.07,-0.96,-0.03,21.87,5.69,4.15,1.05,-0.79,0.65
7420,0.69,-0.11,-0.71,-0.02,14.81,0.07,-5.87,-1.84,3.36,-0.10,0.31,-0.07,-0.95,-0.01,21.87,5.69,4.15,1.05,-0.79,0.65
7440,0.74,-0.12,-0.67,-0.01,14.81,0.07,-5.87,-1.84,3.36,-0.10,0.31,-0.07,-0.95,-0.01,3.42,0.55,-2.02,1.05,-0.79,0.65
7460,0.74,-0.12,-0.67,-0.01,11.13,-0.35,-8.63,-1.84,3.36,-0.10,0.39,-0.07,-0.92,-0.01,3.42,0.55,-2.02,1.05,-0.79,0.65
7480,0.77,-0.12,-0.63,0.02,11.13,-0.35,-8.63,-1.84,3.36,-0.10,0.39,-0.07,-0.92,-0.01,3.42,0.55,-2.02,0.40,4.44,0.04
7500,0.77,-0.12,-0.63,0.02,2.59,-1.35,-7.52,-1.84,3.36,-0.10,0.49,-0.05,-0.87,-0.01,3.42,0.55,-2.02,0.40,4.44,0.04
7520,0.78,-0.09,-0.62,0.06,2.59,-1.35,-7.52,-1.84,3.36,-0.10,0.49,-0.05,-0.87,-0.01,5.25,3.70,-4.77,0.40,4.44,0.04
7540,0.78,-0.09,-0.62,0.06,-0.36,-1.23,-8.13,-1.84,3.36,-0.10,0.60,-0.03,-0.80,-0.04,5.25,3.70,-4.77,0.40,4.44,0.04
7560,0.78,-0.06,-0.62,0.09,-0.36,-1.23,-8.13,-1.84,3.36,-0.10,0.60,-0.03,-0.80,-0.04,5.25,3.70,-4.77,-0.78,6.50,-1.46
7580,0.78,-0.06,-0.62,0.09,-0.36,-1.23,-8.13,2.33,-0.42,0.13,0.69,-0.03,-0.71,-0.09,5.25,3.70,-4.77,-0.78,6.50,-1.46
7600,0.79,-0.04,-0.61,0.11,-0.36,-1.23,-8.13,2.33,-0.42,0.13,0.69,-0.03,-0.71,-0.09,5.25,3.70,-4.77,-1.94,6.82,-1.16
7620,0.79,-0.04,-0.61,0.11,9.60,2.87,2.83,2.33,-0.42,0.13,0.77,-0.01,-0.63,-0.11,5.25,3.70,-4.77,-1.94,6.82,-1.16
7640,0.80,-0.05,-0.59,0.12,9.60,2.87,2.83,2.33,-0.42,0.13,0.77,-0.01,-0.63,-0.11,5.25,3.70,-4.77,-0.07,5.60,-1.00
7660,0.80,-0.05,-0.59,0.12,9.60,2.87,2.83,0.00,0.86,0.87,0.80,0.00,-0.59,-0.11,5.25,3.70,-4.77,-0.07,5.60,-1.00
7680,0.79,-0.02,-0.60,0.14,9.60,2.87,2.83,0.00,0.86,0.87,0.80,0.00,-0.59,-0.11,5.25,3.70,-4.77,0.71,2.26,-0.16
7700,0.79,-0.02,-0.60,0.14,10.29,1.57,9.80,0.00,0.86,0.87,0.78,0.03,-0.62,-0.08,5.25,3.70,-4.77,0.71,2.26,-0.16
7720,0.78,-0.02,-0.61,0.15,10.29,1.57,9.80,0.00,0.86,0.87,0.78,0.03,-0.62,-0.08,5.25,3.70,-4.77,2.00,-1.96,0.65
7740,0.78,-0.02,-0.61,0.15,10.29,1.57,9.80,-0.60,-1.67,0.69,0.75,0.07,-0.65,-0.05,5.25,3.70,-4.77,2.00,-1.96,0.65
7760,0.78,-0.02,-0.61,0.15,10.29,1.57,9.80,-0.60,-1.67,0.69,0.75,0.07,-0.65,-0.05,18.89,1.32,-4.39,2.00,-1.96,0.65
7780,0.78,-0.02,-0.61,0.15,10.29,1.57,9.80,1.23,0.94,0.68,0.72,0.09,-0.69,-0.01,18.89,1.32,-4.39,2.00,-1.96,0.65
7800,0.76,-0.05,-0.64,0.11,10.29,1.57,9.80,1.23,0.94,0.68,0.72,0.09,-0.69,-0.01,18.89,1.32,-4.39,1.97,-2.62,1.06
7820,0.76,-0.05,-0.64,0.11,5.54,5.01,-20.99,1.23,0.94,0.68,0.69,0.08,-0.72,-0.00,18.89,1.32,-4.39,1.97,-2.62,1.06
7840,0.73,-0.06,-0.67,0.12,5.54,5.01,-20.99,1.23,0.94,0.68,0.69,0.08,-0.72,-0.00,18.89,1.32,-4.39,-0.80,-2.19,0.88
7860,0.73,-0.06,-0.67,0.12,12.78,-11.04,-6.67,1.23,0.94,0.68,0.66,0.07,-0.74,0.01,18.89,1.32,-4.39,-0.80,-2.19,0.88
7880,0.70,-0.04,-0.70,0.11,12.78,-11.04,-6.67,1.23,0.94,0.68,0.66,0.07,-0.74,0.01,18.89,1.32,-4.39,0.44,-1.27,0.34
7900,0.70,-0.04,-0.70,0.11,9.41,1.91,-3.57,1.23,0.94,0.68,0.65,0.06,-0.76,0.00,18.89,1.32,-4.39,0.44,-1.27,0.34
7920,0.67,-0.04,-0.74,0.10,9.41,1.91,-3.57,1.23,0.94,0.68,0.65,0.06,-0.76,0.00,10.85,1.63,-2.71,0.44,-1.27,0.34
7940,0.67,-0.04,-0.74,0.10,9.10,-0.35,-1.69,1.23,0.94,0.68,0.64,0.04,-0.77,-0.01,10.85,1.63,-2.71,0.44,-1.27,0.34
7960,0.63,-0.05,-0.77,0.09,9.10,-0.35,-1.69,1.23,0.94,0.68,0.64,0.04,-0.77,-0.01,10.85,1.63,-2.71,-1.11,-0.88,0.30
7980,0.63,-0.05,-0.77,0.09,7.88,-5.02,-0.23,1.23,0.94,0.68,0.62,0.03,-0.78,-0.02,10.85,1.63,-2.71,-1.11,-0.88,0.30
8000,0.58,-0.04,-0.81,0.08,7.88,-5.02,-0.23,1.23,0.94,0.68,0.62,0.03,-0.78,-0.02,10.85,1.63,-2.71,-0.38,-0.99,0.29
8020,0.58,-0.04,-0.81,0.08,7.88,-5.02,-0.23,-0.65,-3.12,-0.29,0.60,0.02,-0.80,-0.02,10.85,1.63,-2.71,-0.38,-0.99,0.29
8040,0.53,-0.05,-0.84,0.05,7.88,-5.02,-0.23,-0.65,-3.12,-0.29,0.60,0.02,-0.80,-0.02,10.20,0.98,-0.06,-0.38,-0.99,0.29
8060,0.53,-0.05,-0.84,0.05,10.21,-3.15,0.84,-0.65,-3.12,-0.29,0.58,0.01,-0.82,-0.02,10.20,0.98,-0.06,-0.38,-0.99,0.29
8080,0.51,-0.06,-0.86,0.05,10.21,-3.15,0.84,-0.65,-3.12,-0.29,0.58,0.01,-0.82,-0.02,7.17,-0.98,-0.45,-0.38,-0.99,0.29
8100,0.51,-0.06,-0.86,0.05,10.21,-3.15,0.84,-0.51,-1.41,0.20,0.54,0.01,-0.84,-0.02,7.17,-0.98,-0.45,-0.38,-0.99,0.29
8120,0.49,-0.08,-0.87,0.01,10.21,-3.15,0.84,-0.51,-1.41,0.20,0.54,0.01,-0.84,-0.02,11.99,3.70,-0.45,-0.38,-0.99,0.29
8140,0.49,-0.08,-0.87,0.01,14.01,-3.11,1.45,-0.51,-1.41,0.20,0.49,-0.00,-0.87,-0.01,11.99,3.70,-0.45,-0.38,-0.99,0.29
8160,0.50,-0.11,-0.86,-0.02,14.01,-3.11,1.45,-0.51,-1.41,0.20,0.49,-0.00,-0.87,-0.01,11.99,3.70,-0.45,0.00,-3.00,0.44
8180,0.50,-0.11,-0.86,-0.02,17.64,-2.77,5.86,-0.51,-1.41,0.20,0.43,-0.02,-0.90,-0.01,11.99,3.70,-0.45,0.00,-3.00,0.44
8200,0.55,-0.11,-0.83,-0.04,17.64,-2.77,5.86,-0.51,-1.41,0.20,0.43,-0.02,-0.90,-0.01,11.99,3.70,-0.45,-0.59,-3.88,0.93
8220,0.55,-0.11,-0.83,-0.04,19.25,-3.91,11.41,-0.51,-1.41,0.20,0.35,-0.05,-0.93,-0.02,11.99,3.70,-0.45,-0.59,-3.88,0.93
8240,0.59,-0.13,-0.79,-0.07,19.25,-3.91,11.41,-0.51,-1.41,0.20,0.35,-0.05,-0.93,-0.02,11.99,3.70,-0.45,-1.42,-4.09,1.01
8260,0.59,-0.13,-0.79,-0.07,19.25,-3.91,11.41,-2.24,2.97,0.52,0.28,-0.07,-0.96,-0.05,11.99,3.70,-0.45,-1.42,-4.09,1.01
8280,0.64,-0.12,-0.75,-0.05,19.25,-3.91,11.41,-2.24,2.97,0.52,0.28,-0.07,-0.96,-0.05,11.99,3.70,-0.45,-1.47,-3.71,0.21
8300,0.64,-0.12,-0.75,-0.05,19.10,-4.49,-9.43,-2.24,2.97,0.52,0.27,-0.07,-0.96,-0.02,11.99,3.70,-0.45,-1.47,-3.71,0.21
8320,0.69,-0.12,-0.71,-0.02,19.10,-4.49,-9.43,-2.24,2.97,0.52,0.27,-0.07,-0.96,-0.02,11.99,3.70,-0.45,1.06,-0.15,0.60
8340,0.69,-0.12,-0.71,-0.02,15.35,0.80,-6.25,-2.24,2.97,0.52,0.31,-0.07,-0.95,-0.01,11.99,3.70,-0.45,1.06,-0.15,0.60
8360,0.73,-0.12,-0.67,-0.01,15.35,0.80,-6.25,-2.24,2.97,0.52,0.31,-0.07,-0.95,-0.01,11.99,3.70,-0.45,0.46,2.53,0.17
8380,0.73,-0.12,-0.67,-0.01,6.19,-0.66,-7.82,-2.24,2.97,0.52,0.39,-0.06,-0.92,-0.00,11.99,3.70,-0.45,0.46,2.53,0.17
8400,0.76,-0.11,-0.64,0.02,6.19,-0.66,-7.82,-2.24,2.97,0.52,0.39,-0.06,-0.92,-0.00,11.99,3.70,-0.45,0.58,4.69,-0.15
8420,0.76,-0.11,-0.64,0.02,3.01,-1.58,-6.86,-2.24,2.97,0.52,0.50,-0.05,-0.87,-0.02,11.99,3.70,-0.45,0.58,4.69,-0.15
8440,0.77,-0.09,-0.62,0.04,3.01,-1.58,-6.86,-2.24,2.97,0.52,0.50,-0.05,-0.87,-0.02,11.99,3.70,-0.45,-0.28,5.84,-0.92
8460,0.77,-0.09,-0.62,0.04,3.01,-1.58,-6.86,2.03,0.60,0.33,0.60,-0.03,-0.80,-0.06,11.99,3.70,-0.45,-0.28,5.84,-0.92
8480,0.78,-0.06,-0.62,0.07,3.01,-1.58,-6.86,2.03,0.60,0.33,0.60,-0.03,-0.80,-0.06,11.99,3.70,-0.45,-1.23,6.20,-1.49
8500,0.78,-0.06,-0.62,0.07,1.21,1.30,-5.11,2.03,0.60,0.33,0.69,-0.03,-0.72,-0.10,11.99,3.70,-0.45,-1.23,6.20,-1.49
8520,0.79,-0.05,-0.61,0.09,1.21,1.30,-5.11,2.03,0.60,0.33,0.69,-0.03,-0.72,-0.10,11.99,3.70,-0.45,-1.96,6.54,-1.23
8540,0.79,-0.05,-0.61,0.09,1.21,1.30,-5.11,1.07,0.83,0.58,0.76,-0.00,-0.64,-0.12,11.99,3.70,-0.45,-1.96,6.54,-1.23
8560,0.79,-0.05,-0.60,0.10,1.21,1.30,-5.11,1.07,0.83,0.58,0.76,-0.00,-0.64,-0.12,11.99,3.70,-0.45,0.30,5.33,-1.05
8580,0.79,-0.05,-0.60,0.10,9.75,-1.04,6.85,1.07,0.83,0.58,0.79,0.01,-0.60,-0.12,11.99,3.70,-0.45,0.30,5.33,-1.05
8600,0.79,-0.03,-0.61,0.12,9.75,-1.04,6.85,1.07,0.83,0.58,0.79,0.01,-0.60,-0.12,11.99,3.70,-0.45,0.44,1.98,-0.00
8620,0.79,-0.03,-0.61,0.12,9.75,-1.04,6.85,1.59,-0.94,0.03,0.77,0.04,-0.63,-0.09,11.99,3.70,-0.45,0.44,1.98,-0.00
8640,0.77,-0.03,-0.62,0.12,9.75,-1.04,6.85,1.59,-0.94,0.03,0.77,0.04,-0.63,-0.09,11.99,3.70,-0.45,2.83,-2.24,0.49
8660,0.77,-0.03,-0.62,0.12,-6.34,-0.73,-15.98,1.59,-0.94,0.03,0.74,0.10,-0.67,-0.03,11.99,3.70,-0.45,2.83,-2.24,0.49
8680,0.76,-0.02,-0.64,0.12,-6.34,-0.73,-15.98,1.59,-0.94,0.03,0.74,0.10,-0.67,-0.03,11.99,3.70,-0.45,6.27,-1.88,-0.05
8700,0.76,-0.02,-0.64,0.12,-6.34,-0.73,-15.98,0.73,-2.63,0.25,0.70,0.10,-0.71,-0.00,11.99,3.70,-0.45,6.27,-1.88,-0.05
8720,0.76,-0.06,-0.65,0.09,-6.34,-0.73,-15.98,0.73,-2.63,0.25,0.70,0.10,-0.71,-0.00,11.99,3.70,-0.45,0.67,-2.67,1.27
8740,0.76,-0.06,-0.65,0.09,-2.93,-3.72,-3.98,0.73,-2.63,0.25,0.67,0.07,-0.74,-0.01,11.99,3.70,-0.45,0.67,-2.67,1.27
8760,0.73,-0.07,-0.67,0.09,-2.93,-3.72,-3.98,0.73,-2.63,0.25,0.67,0.07,-0.74,-0.01,11.99,3.70,-0.45,-0.95,-2.08,0.88
8780,0.73,-0.07,-0.67,0.09,8.53,-1.84,-4.30,0.73,-2.63,0.25,0.65,0.07,-0.75,0.00,11.99,3.70,-0.45,-0.95,-2.08,0.88
8800,0.70,-0.05,-0.71,0.08,8.53,-1.84,-4.30,0.73,-2.63,0.25,0.65,0.07,-0.75,0.00,11.99,3.70,-0.45,0.89,-1.00,0.32
8820,0.70,-0.05,-0.71,0.08,8.41,-0.35,-3.99,0.73,-2.63,0.25,0.64,0.06,-0.77,-0.01,11.99,3.70,-0.45,0.89,-1.00,0.32
8840,0.66,-0.05,-0.75,0.08,8.41,-0.35,-3.99,0.73,-2.63,0.25,0.64,0.06,-0.77,-0.01,11.99,3.70,-0.45,-0.90,-1.06,0.35
8860,0.66,-0.05,-0.75,0.08,8.34,-2.34,-1.73,0.73,-2.63,0.25,0.63,0.05,-0.78,-0.02,11.99,3.70,-0.45,-0.90,-1.06,0.35
8880,0.62,-0.04,-0.78,0.07,8.34,-2.34,-1.73,0.73,-2.63,0.25,0.63,0.05,-0.78,-0.02,11.99,3.70,-0.45,-0.67,-0.89,0.16
8900,0.62,-0.04,-0.78,0.07,7.34,-3.53,-0.85,0.73,-2.63,0.25,0.61,0.04,-0.79,-0.01,11.99,3.70,-0.45,-0.67,-0.89,0.16
8920,0.57,-0.04,-0.82,0.06,7.34,-3.53,-0.85,0.73,-2.63,0.25,0.61,0.04,-0.79,-0.01,11.99,3.70,-0.45,0.05,-0.91,0.22
8940,0.57,-0.04,-0.82,0.06,11.32,-0.73,1.26,0.73,-2.63,0.25,0.59,0.03,-0.81,-0.02,11.99,3.70,-0.45,0.05,-0.91,0.22
8960,0.52,-0.06,-0.85,0.03,11.32,-0.73,1.26,0.73,-2.63,0.25,0.59,0.03,-0.81,-0.02,11.99,3.70,-0.45,-0.77,-1.34,0.36
8980,0.52,-0.06,-0.85,0.03,10.03,-2.84,0.34,0.73,-2.63,0.25,0.56,0.01,-0.83,-0.03,11.99,3.70,-0.45,-0.77,-1.34,0.36
9000,0.50,-0.07,-0.86,0.02,10.03,-2.84,0.34,0.73,-2.63,0.25,0.56,0.01,-0.83,-0.03,11.99,3.70,-0.45,-0.51,-1.93,0.39
9020,0.50,-0.07,-0.86,0.02,10.33,-2.07,2.37,0.73,-2.63,0.25,0.52,0.01,-0.85,-0.02,11.99,3.70,-0.45,-0.51,-1.93,0.39
9040,0.49,-0.09,-0.87,-0.01,10.33,-2.07,2.37,0.73,-2.63,0.25,0.52,0.01,-0.85,-0.02,11.99,3.70,-0.45,0.03,-2.56,0.38
9060,0.49,-0.09,-0.87,-0.01,15.08,-2.19,3.29,0.73,-2.63,0.25,0.46,-0.00,-0.89,-0.02,11.99,3.70,-0.45,0.03,-2.56,0.38
9080,0.52,-0.11,-0.85,-0.04,15.08,-2.19,3.29,0.73,-2.63,0.25,0.46,-0.00,-0.89,-0.02,11.99,3.70,-0.45,0.07,-3.39,0.58
9100,0.52,-0.11,-0.85,-0.04,15.08,-2.19,3.29,-1.76,2.29,0.12,0.39,-0.02,-0.92,-0.01,11.99,3.70,-0.45,0.07,-3.39,0.58
9120,0.57,-0.10,-0.82,-0.06,15.08,-2.19,3.29,-1.76,2.29,0.12,0.39,-0.02,-0.92,-0.01,11.99,3.70,-0.45,-0.38,-4.13,0.96
9140,0.57,-0.10,-0.82,-0.06,20.44,-0.20,8.23,-1.76,2.29,0.12,0.31,-0.06,-0.95,-0.04,11.99,3.70,-0.45,-0.38,-4.13,0.96
9160,0.61,-0.12,-0.78,-0.08,20.44,-0.20,8.23,-1.76,2.29,0.12,0.31,-0.06,-0.95,-0.04,11.99,3.70,-0.45,-2.61,-4.34,0.75
9180,0.61,-0.12,-0.78,-0.08,20.44,-0.20,8.23,-1.93,2.59,0.72,0.25,-0.06,-0.96,-0.04,11.99,3.70,-0.45,-2.61,-4.34,0.75
9200,0.66,-0.11,-0.74,-0.05,20.44,-0.20,8.23,-1.93,2.59,0.72,0.25,-0.06,-0.96,-0.04,11.99,3.70,-0.45,0.67,-2.39,0.25
9220,0.66,-0.11,-0.74,-0.05,19.53,-3.84,-10.16,-1.93,2.59,0.72,0.27,-0.06,-0.96,-0.02,11.99,3.70,-0.45,0.67,-2.39,0.25
9240,0.71,-0.11,-0.69,-0.03,19.53,-3.84,-10.16,-1.93,2.59,0.72,0.27,-0.06,-0.96,-0.02,11.99,3.70,-0.45,0.99,0.93,0.23
9260,0.71,-0.11,-0.69,-0.03,13.24,1.45,-7.71,-1.93,2.59,0.72,0.33,-0.06,-0.94,-0.01,11.99,3.70,-0.45,0.99,0.93,0.23
9280,0.74,-0.11,-0.66,-0.01,13.24,1.45,-7.71,-1.93,2.59,0.72,0.33,-0.06,-0.94,-0.01,11.99,3.70,-0.45,0.71,3.39,-0.02
9300,0.74,-0.11,-0.66,-0.01,5.93,-0.01,-6.25,-1.93,2.59,0.72,0.42,-0.05,-0.91,-0.00,11.99,3.70,-0.45,0.71,3.39,-0.02
9320,0.77,-0.09,-0.63,0.02,5.93,-0.01,-6.25,-1.93,2.59,0.72,0.42,-0.05,-0.91,-0.00,11.99,3.70,-0.45,1.02,5.22,-0.36
9340,0.77,-0.09,-0.63,0.02,1.40,-0.46,-6.67,-1.93,2.59,0.72,0.52,-0.03,-0.85,-0.02,11.99,3.70,-0.45,1.02,5.22,-0.36
9360,0.78,-0.07,-0.63,0.05,1.40,-0.46,-6.67,-1.93,2.59,0.72,0.52,-0.03,-0.85,-0.02,11.99,3.70,-0.45,-0.55,6.05,-1.13
9380,0.78,-0.07,-0.63,0.05,1.40,-0.46,-6.67,2.19,0.35,0.21,0.62,-0.03,-0.78,-0.08,11.99,3.70,-0.45,-0.55,6.05,-1.13
9400,0.78,-0.05,-0.62,0.08,1.40,-0.46,-6.67,2.19,0.35,0.21,0.62,-0.03,-0.78,-0.08,11.99,3.70,-0.45,-2.57,6.15,-1.26
9420,0.78,-0.05,-0.62,0.08,2.13,1.95,-4.45,2.19,0.35,0.21,0.71,-0.02,-0.69,-0.11,11.99,3.70,-0.45,-2.57,6.15,-1.26
9440,0.79,-0.05,-0.61,0.09,2.13,1.95,-4.45,2.19,0.35,0.21,0.71,-0.02,-0.69,-0.11,11.99,3.70,-0.45,-0.89,6.73,-0.86
9460,0.79,-0.05,-0.61,0.09,2.13,1.95,-4.45,0.52,1.17,0.96,0.78,0.01,-0.62,-0.12,11.99,3.70,-0.45,-0.89,6.73,-0.86
9480,0.79,-0.05,-0.60,0.11,2.13,1.95,-4.45,0.52,1.17,0.96,0.78,0.01,-0.62,-0.12,11.99,3.70,-0.45,0.20,4.42,-0.73
9500,0.79,-0.05,-0.60,0.11,12.97,-0.54,14.24,0.52,1.17,0.96,0.79,0.01,-0.60,-0.11,11.99,3.70,-0.45,0.20,4.42,-0.73
9520,0.78,-0.03,-0.61,0.13,12.97,-0.54,14.24,0.52,1.17,0.96,0.79,0.01,-0.60,-0.11,11.99,3.70,-0.45,0.44,0.90,0.29
9540,0.78,-0.03,-0.61,0.13,12.97,-0.54,14.24,1.05,-0.87,-0.10,0.77,0.03,-0.63,-0.07,11.99,3.70,-0.45,0.44,0.90,0.29
9560,0.76,-0.03,-0.63,0.12,12.97,-0.54,14.24,1.05,-0.87,-0.10,0.77,0.03,-0.63,-0.07,11.99,3.70,-0.45,2.43,-2.49,0.71
9580,0.76,-0.03,-0.63,0.12,-7.87,-3.07,-14.56,1.05,-0.87,-0.10,0.74,0.10,-0.67,-0.02,11.99,3.70,-0.45,2.43,-2.49,0.71
9600,0.75,-0.02,-0.65,0.14,-7.87,-3.07,-14.56,1.05,-0.87,-0.10,0.74,0.10,-0.67,-0.02,11.99,3.70,-0.45,6.34,-1.85,-0.10
9620,0.75,-0.02,-0.65,0.14,-7.87,-3.07,-14.56,1.09,-3.84,0.54,0.70,0.11,-0.71,0.01,11.99,3.70,-0.45,6.34,-1.85,-0.10
9640,0.75,-0.04,-0.65,0.10,-7.87,-3.07,-14.56,1.09,-3.84,0.54,0.70,0.11,-0.71,0.01,11.99,3.70,-0.45,0.98,-2.57,1.20
9660,0.75,-0.04,-0.65,0.10,-3.96,-6.78,-3.87,1.09,-3.84,0.54,0.67,0.09,-0.74,0.01,11.99,3.70,-0.45,0.98,-2.57,1.20
9680,0.72,-0.05,-0.68,0.11,-3.96,-6.78,-3.87,1.09,-3.84,0.54,0.67,0.09,-0.74,0.01,11.99,3.70,-0.45,-0.40,-2.02,0.89
9700,0.72,-0.05,-0.68,0.11,9.91,-1.35,-4.68,1.09,-3.84,0.54,0.65,0.09,-0.75,0.02,11.99,3.70,-0.45,-0.40,-2.02,0.89
9720,0.70,-0.04,-0.71,0.10,9.91,-1.35,-4.68,1.09,-3.84,0.54,0.65,0.09,-0.75,0.02,11.99,3.70,-0.45,0.62,-1.16,0.42
9740,0.70,-0.04,-0.71,0.10,8.56,2.25,-4.37,1.09,-3.84,0.54,0.64,0.07,-0.77,0.01,11.99,3.70,-0.45,0.62,-1.16,0.42
9760,0.66,-0.04,-0.74,0.09,8.56,2.25,-4.37,1.09,-3.84,0.54,0.64,0.07,-0.77,0.01,11.99,3.70,-0.45,-0.78,-1.02,0.38
9780,0.66,-0.04,-0.74,0.09,8.18,-4.07,-3.61,1.09,-3.84,0.54,0.62,0.06,-0.78,0.00,11.99,3.70,-0.45,-0.78,-1.02,0.38
9800,0.62,-0.03,-0.78,0.09,8.18,-4.07,-3.61,1.09,-3.84,0.54,0.62,0.06,-0.78,0.00,11.99,3.70,-0.45,-0.69,-0.84,0.12
9820,0.62,-0.03,-0.78,0.09,7.41,-4.34,-1.77,1.09,-3.84,0.54,0.61,0.06,-0.79,0.01,11.99,3.70,-0.45,-0.69,-0.84,0.12
9840,0.57,-0.02,-0.82,0.08,7.41,-4.34,-1.77,1.09,-3.84,0.54,0.61,0.06,-0.79,0.01,11.99,3.70,-0.45,0.26,-0.74,0.10
9860,0.57,-0.02,-0.82,0.08,10.98,1.72,-0.16,1.09,-3.84,0.54,0.59,0.05,-0.80,-0.00,11.99,3.70,-0.45,0.26,-0.74,0.10
9880,0.52,-0.04,-0.85,0.05,10.98,1.72,-0.16,1.09,-3.84,0.54,0.59,0.05,-0.80,-0.00,11.99,3.70,-0.45,-0.96,-1.12,0.33
9900,0.52,-0.04,-0.85,0.05,9.48,-2.04,1.26,1.09,-3.84,0.54,0.57,0.03,-0.82,-0.02,11.99,3.70,-0.45,-0.96,-1.12,0.33
9920,0.49,-0.05,-0.87,0.04,9.48,-2.04,1.26,1.09,-3.84,0.54,0.57,0.03,-0.82,-0.02,11.99,3.70,-0.45,-0.80,-1.67,0.27
9940,0.49,-0.05,-0.87,0.04,9.48,-2.04,1.26,-0.89,-1.42,0.21,0.53,0.03,-0.85,-0.01,11.99,3.70,-0.45,-0.80,-1.67,0.27
9960,0.48,-0.07,-0.87,0.01,9.48,-2.04,1.26,-0.89,-1.42,0.21,0.53,0.03,-0.85,-0.01,11.99,3.70,-0.45,0.20,-2.34,0.33
9980,0.48,-0.07,-0.87,0.01,13.93,-3.84,1.87,-0.89,-1.42,0.21,0.48,0.02,-0.88,-0.01,11.99,3.70,-0.45,0.20,-2.34,0.33
10000,0.50,-0.09,-0.86,-0.02,13.93,-3.84,1.87,-0.89,-1.42,0.21,0.48,0.02,-0.88,-0.01,11.99,3.70,-0.45,0.18,-3.12,0.44
10020,0.50,-0.09,-0.86,-0.02,13.93,-3.84,1.87,-1.65,1.47,0.28,0.42,0.01,-0.91,-0.00,11.99,3.70,-0.45,0.18,-3.12,0.44
10040,0.54,-0.08,-0.83,-0.03,13.93,-3.84,1.87,-1.65,1.47,0.28,0.42,0.01,-0.91,-0.00,11.99,3.70,-0.45,-0.01,-3.80,0.66
10060,0.54,-0.08,-0.83,-0.03,21.32,-1.23,10.18,-1.65,1.47,0.28,0.34,-0.01,-0.94,-0.02,11.99,3.70,-0.45,-0.01,-3.80,0.66
10080,0.59,-0.09,-0.80,-0.06,21.32,-1.23,10.18,-1.65,1.47,0.28,0.34,-0.01,-0.94,-0.02,11.99,3.70,-0.45,-1.56,-3.95,0.70
10100,0.59,-0.09,-0.80,-0.06,21.32,-1.23,10.18,-1.20,3.29,0.15,0.27,-0.03,-0.96,-0.04,11.99,3.70,-0.45,-1.56,-3.95,0.70
10120,0.65,-0.10,-0.75,-0.04,21.32,-1.23,10.18,-1.20,3.29,0.15,0.27,-0.03,-0.96,-0.04,11.99,3.70,-0.45,-0.71,-3.57,0.16
10140,0.65,-0.10,-0.75,-0.04,21.32,-1.23,10.18,1.17,3.30,1.43,0.27,-0.04,-0.96,-0.02,11.99,3.70,-0.45,-0.71,-3.57,0.16
10160,0.70,-0.10,-0.71,-0.02,21.32,-1.23,10.18,1.17,3.30,1.43,0.27,-0.04,-0.96,-0.02,11.99,3.70,-0.45,0.39,-0.04,0.82
10180,0.70,-0.10,-0.71,-0.02,15.89,1.30,-6.86,1.17,3.30,1.43,0.31,-0.04,-0.95,-0.00,11.99,3.70,-0.45,0.39,-0.04,0.82
10200,0.74,-0.11,-0.67,-0.01,15.89,1.30,-6.86,1.17,3.30,1.43,0.31,-0.04,-0.95,-0.00,11.99,3.70,-0.45,0.86,2.71,0.47
10220,0.74,-0.11,-0.67,-0.01,6.38,-1.39,-7.90,1.17,3.30,1.43,0.40,-0.04,-0.92,0.01,11.99,3.70,-0.45,0.86,2.71,0.47
10240,0.76,-0.11,-0.64,0.02,6.38,-1.39,-7.90,1.17,3.30,1.43,0.40,-0.04,-0.92,0.01,11.99,3.70,-0.45,0.76,4.72,-0.11
10260,0.76,-0.11,-0.64,0.02,2.90,-2.04,-7.40,1.17,3.30,1.43,0.50,-0.02,-0.87,0.00,11.99,3.70,-0.45,0.76,4.72,-0.11
10280,0.77,-0.08,-0.63,0.06,2.90,-2.04,-7.40,1.17,3.30,1.43,0.50,-0.02,-0.87,0.00,11.99,3.70,-0.45,-0.18,5.78,-0.81
10300,0.77,-0.08,-0.63,0.06,-1.05,-0.54,-7.93,1.17,3.30,1.43,0.59,-0.02,-0.80,-0.04,11.99,3.70,-0.45,-0.18,5.78,-0.81
10320,0.77,-0.04,-0.63,0.09,-1.05,-0.54,-7.93,1.17,3.30,1.43,0.59,-0.02,-0.80,-0.04,11.99,3.70,-0.45,-1.53,5.99,-1.29
10340,0.77,-0.04,-0.63,0.09,-1.05,-0.54,-7.93,2.27,-0.21,0.19,0.68,-0.02,-0.72,-0.08,11.99,3.70,-0.45,-1.53,5.99,-1.29
10360,0.78,-0.03,-0.61,0.11,-1.05,-0.54,-7.93,2.27,-0.21,0.19,0.68,-0.02,-0.72,-0.08,11.99,3.70,-0.45,-2.08,6.12,-0.61
10380,0.78,-0.03,-0.61,0.11,8.10,2.06,0.64,2.27,-0.21,0.19,0.76,0.00,-0.65,-0.09,11.99,3.70,-0.45,-2.08,6.12,-0.61
10400,0.78,-0.05,-0.61,0.12,8.10,2.06,0.64,2.27,-0.21,0.19,0.76,0.00,-0.65,-0.09,11.99,3.70,-0.45,1.00,5.37,-0.91
10420,0.78,-0.05,-0.61,0.12,10.14,-0.50,7.70,2.27,-0.21,0.19,0.79,0.00,-0.61,-0.10,11.99,3.70,-0.45,1.00,5.37,-0.91
10440,0.77,-0.03,-0.62,0.14,10.14,-0.50,7.70,2.27,-0.21,0.19,0.79,0.00,-0.61,-0.10,11.99,3.70,-0.45,-0.60,2.17,0.07
10460,0.77,-0.03,-0.62,0.14,10.14,-0.50,7.70,1.44,-0.94,0.14,0.77,0.02,-0.63,-0.07,11.99,3.70,-0.45,-0.60,2.17,0.07
10480,0.77,-0.03,-0.62,0.14,10.14,-0.50,7.70,1.44,-0.94,0.14,0.77,0.02,-0.63,-0.07,3.95,-0.63,-14.86,-0.60,2.17,0.07
10500,0.77,-0.03,-0.62,0.14,5.73,0.15,-0.23,1.44,-0.94,0.14,0.74,0.07,-0.66,-0.02,3.95,-0.63,-14.86,-0.60,2.17,0.07
10520,0.76,-0.03,-0.64,0.14,5.73,0.15,-0.23,1.44,-0.94,0.14,0.74,0.07,-0.66,-0.02,3.95,-0.63,-14.86,5.07,-1.98,-0.46
10540,0.76,-0.03,-0.64,0.14,5.73,0.15,-0.23,0.70,-1.18,-0.61,0.70,0.09,-0.70,0.01,3.95,-0.63,-14.86,5.07,-1.98,-0.46
10560,0.74,-0.04,-0.66,0.12,5.73,0.15,-0.23,0.70,-1.18,-0.61,0.70,0.09,-0.70,0.01,3.95,-0.63,-14.86,1.86,-2.61,1.07
10580,0.74,-0.04,-0.66,0.12,-0.82,-1.39,-6.67,0.70,-1.18,-0.61,0.68,0.08,-0.73,0.03,3.95,-0.63,-14.86,1.86,-2.61,1.07
10600,0.72,-0.05,-0.68,0.12,-0.82,-1.39,-6.67,0.70,-1.18,-0.61,0.68,0.08,-0.73,0.03,3.95,-0.63,-14.86,-0.07,-1.98,0.83
10620,0.72,-0.05,-0.68,0.12,15.38,-12.19,-7.13,0.70,-1.18,-0.61,0.65,0.07,-0.75,0.03,3.95,-0.63,-14.86,-0.07,-1.98,0.83
10640,0.69,-0.04,-0.71,0.12,15.38,-12.19,-7.13,0.70,-1.18,-0.61,0.65,0.07,-0.75,0.03,3.95,-0.63,-14.86,0.09,-1.41,0.43
10660,0.69,-0.04,-0.71,0.12,8.10,-1.04,-4.30,0.70,-1.18,-0.61,0.64,0.07,-0.77,0.03,3.95,-0.63,-14.86,0.09,-1.41,0.43
10680,0.66,-0.03,-0.75,0.11,8.10,-1.04,-4.30,0.70,-1.18,-0.61,0.64,0.07,-0.77,0.03,3.95,-0.63,-14.86,-0.22,-0.96,0.22
10700,0.66,-0.03,-0.75,0.11,9.18,-3.03,-3.84,0.70,-1.18,-0.61,0.63,0.05,-0.78,0.01,3.95,-0.63,-14.86,-0.22,-0.96,0.22
10720,0.61,-0.03,-0.78,0.10,9.18,-3.03,-3.84,0.70,-1.18,-0.61,0.63,0.05,-0.78,0.01,3.95,-0.63,-14.86,-1.24,-0.85,0.17
10740,0.61,-0.03,-0.78,0.10,7.99,-2.99,-1.96,0.70,-1.18,-0.61,0.61,0.04,-0.79,0.00,3.95,-0.63,-14.86,-1.24,-0.85,0.17
10760,0.56,-0.03,-0.82,0.08,7.99,-2.99,-1.96,0.70,-1.18,-0.61,0.61,0.04,-0.79,0.00,3.95,-0.63,-14.86,-0.68,-0.84,0.20
10780,0.56,-0.03,-0.82,0.08,10.18,0.57,-1.23,0.70,-1.18,-0.61,0.60,0.03,-0.80,-0.01,3.95,-0.63,-14.86,-0.68,-0.84,0.20
10800,0.52,-0.04,-0.85,0.06,10.18,0.57,-1.23,0.70,-1.18,-0.61,0.60,0.03,-0.80,-0.01,3.95,-0.63,-14.86,-0.59,-0.97,0.18
10820,0.52,-0.04,-0.85,0.06,10.18,0.57,-1.23,-1.67,-2.96,-0.34,0.58,0.02,-0.82,-0.02,3.95,-0.63,-14.86,-0.59,-0.97,0.18
10840,0.48,-0.05,-0.87,0.05,10.18,0.57,-1.23,-1.67,-2.96,-0.34,0.58,0.02,-0.82,-0.02,3.95,-0.63,-14.86,-0.84,-1.49,0.23
10860,0.48,-0.05,-0.87,0.05,10.75,-3.11,0.99,-1.67,-2.96,-0.34,0.54,0.02,-0.84,-0.01,3.95,-0.63,-14.86,-0.84,-1.49,0.23
10880,0.46,-0.07,-0.88,0.03,10.75,-3.11,0.99,-1.67,-2.96,-0.34,0.54,0.02,-0.84,-0.01,10.81,1.82,-0.56,-0.84,-1.49,0.23
10900,0.46,-0.07,-0.88,0.03,14.46,-2.65,0.07,-1.67,-2.96,-0.34,0.50,0.01,-0.87,-0.01,10.81,1.82,-0.56,-0.84,-1.49,0.23
10920,0.47,-0.09,-0.88,-0.00,14.46,-2.65,0.07,-1.67,-2.96,-0.34,0.50,0.01,-0.87,-0.01,10.81,1.82,-0.56,-0.35,-2.79,0.38
10940,0.47,-0.09,-0.88,-0.00,14.46,-2.65,0.07,-2.05,0.77,0.33,0.44,-0.00,-0.90,-0.01,10.81,1.82,-0.56,-0.35,-2.79,0.38
10960,0.51,-0.10,-0.85,-0.03,14.46,-2.65,0.07,-2.05,0.77,0.33,0.44,-0.00,-0.90,-0.01,10.81,1.82,-0.56,-0.16,-3.58,0.68
10980,0.51,-0.10,-0.85,-0.03,20.56,-4.49,6.89,-2.05,0.77,0.33,0.37,-0.02,-0.93,-0.00,10.81,1.82,-0.56,-0.16,-3.58,0.68
11000,0.57,-0.10,-0.82,-0.05,20.56,-4.49,6.89,-2.05,0.77,0.33,0.37,-0.02,-0.93,-0.00,10.81,1.82,-0.56,-0.25,-3.81,0.84
11020,0.57,-0.10,-0.82,-0.05,20.56,-4.49,6.89,-0.96,3.76,-0.36,0.29,-0.04,-0.96,-0.03,10.81,1.82,-0.56,-0.25,-3.81,0.84
11040,0.61,-0.11,-0.78,-0.06,20.56,-4.49,6.89,-0.96,3.76,-0.36,0.29,-0.04,-0.96,-0.03,10.81,1.82,-0.56,-1.96,-4.16,0.47
11060,0.61,-0.11,-0.78,-0.06,16.38,-4.03,-8.24,-0.96,3.76,-0.36,0.26,-0.05,-0.96,-0.01,10.81,1.82,-0.56,-1.96,-4.16,0.47
11080,0.67,-0.11,-0.73,-0.03,16.38,-4.03,-8.24,-0.96,3.76,-0.36,0.26,-0.05,-0.96,-0.01,10.81,1.82,-0.56,1.36,-0.94,0.57
11100,0.67,-0.11,-0.73,-0.03,16.38,-4.03,-8.24,1.23,3.61,1.12,0.29,-0.05,-0.96,0.01,10.81,1.82,-0.56,1.36,-0.94,0.57
11120,0.72,-0.11,-0.69,-0.01,16.38,-4.03,-8.24,1.23,3.61,1.12,0.29,-0.05,-0.96,0.01,10.81,1.82,-0.56,0.94,1.81,0.13
11140,0.72,-0.11,-0.69,-0.01,11.90,-0.12,-8.28,1.23,3.61,1.12,0.36,-0.04,-0.93,0.02,10.81,1.82,-0.56,0.94,1.81,0.13
11160,0.75,-0.11,-0.65,0.01,11.90,-0.12,-8.28,1.23,3.61,1.12,0.36,-0.04,-0.93,0.02,10.81,1.82,-0.56,0.61,4.04,-0.22
11180,0.75,-0.11,-0.65,0.01,4.93,-2.54,-6.94,1.23,3.61,1.12,0.46,-0.03,-0.89,0.02,10.81,1.82,-0.56,0.61,4.04,-0.22
11200,0.77,-0.09,-0.63,0.05,4.93,-2.54,-6.94,1.23,3.61,1.12,0.46,-0.03,-0.89,0.02,10.81,1.82,-0.56,0.83,5.40,-0.91
11220,0.77,-0.09,-0.63,0.05,0.83,-1.08,-7.36,1.23,3.61,1.12,0.56,-0.00,-0.83,-0.01,10.81,1.82,-0.56,0.83,5.40,-0.91
11240,0.78,-0.06,-0.62,0.08,0.83,-1.08,-7.36,1.23,3.61,1.12,0.56,-0.00,-0.83,-0.01,10.81,1.82,-0.56,-0.74,5.90,-1.78
11260,0.78,-0.06,-0.62,0.08,-0.70,2.06,-7.86,1.23,3.61,1.12,0.65,0.01,-0.75,-0.05,10.81,1.82,-0.56,-0.74,5.90,-1.78
11280,0.78,-0.03,-0.62,0.10,-0.70,2.06,-7.86,1.23,3.61,1.12,0.65,0.01,-0.75,-0.05,10.81,1.82,-0.56,-1.43,6.37,-1.87
11300,0.78,-0.03,-0.62,0.10,-0.70,2.06,-7.86,1.30,0.15,0.07,0.74,0.02,-0.67,-0.09,10.81,1.82,-0.56,-1.43,6.37,-1.87
11320,0.79,-0.03,-0.60,0.11,-0.70,2.06,-7.86,1.30,0.15,0.07,0.74,0.02,-0.67,-0.09,10.81,1.82,-0.56,-1.38,5.84,-1.08
11340,0.79,-0.03,-0.60,0.11,10.02,-0.58,3.86,1.30,0.15,0.07,0.78,0.02,-0.62,-0.10,10.81,1.82,-0.56,-1.38,5.84,-1.08
11360,0.78,-0.02,-0.61,0.12,10.02,-0.58,3.86,1.30,0.15,0.07,0.78,0.02,-0.62,-0.10,10.81,1.82,-0.56,-0.53,2.97,-0.50
11380,0.78,-0.02,-0.61,0.12,10.02,-0.58,3.86,1.41,-0.89,0.36,0.77,0.03,-0.63,-0.08,10.81,1.82,-0.56,-0.53,2.97,-0.50
11400,0.78,-0.02,-0.62,0.13,10.02,-0.58,3.86,1.41,-0.89,0.36,0.77,0.03,-0.63,-0.08,10.81,1.82,-0.56,1.21,-1.02,0.63
11420,0.78,-0.02,-0.62,0.13,-4.23,4.74,-8.01,1.41,-0.89,0.36,0.74,0.08,-0.66,-0.04,10.81,1.82,-0.56,1.21,-1.02,0.63
11440,0.77,-0.03,-0.62,0.13,-4.23,4.74,-8.01,1.41,-0.89,0.36,0.74,0.08,-0.66,-0.04,10.81,1.82,-0.56,3.00,-1.66,-0.37
11460,0.77,-0.03,-0.62,0.13,-4.23,4.74,-8.01,-0.85,2.12,0.17,0.71,0.10,-0.70,0.00,10.81,1.82,-0.56,3.00,-1.66,-0.37
11480,0.75,-0.03,-0.65,0.11,-4.23,4.74,-8.01,-0.85,2.12,0.17,0.71,0.10,-0.70,0.00,10.81,1.82,-0.56,1.44,-2.62,1.25
11500,0.75,-0.03,-0.65,0.11,6.77,6.77,-18.27,-0.85,2.12,0.17,0.68,0.09,-0.73,0.01,10.81,1.82,-0.56,1.44,-2.62,1.25
11520,0.73,-0.05,-0.68,0.11,6.77,6.77,-18.27,-0.85,2.12,0.17,0.68,0.09,-0.73,0.01,10.81,1.82,-0.56,-0.67,-2.06,0.88
11540,0.73,-0.05,-0.68,0.11,10.02,-15.13,-9.16,-0.85,2.12,0.17,0.66,0.09,-0.75,0.02,10.81,1.82,-0.56,-0.67,-2.06,0.88
11560,0.70,-0.02,-0.71,0.11,10.02,-15.13,-9.16,-0.85,2.12,0.17,0.66,0.09,-0.75,0.02,10.81,1.82,-0.56,0.45,-1.23,0.38
11580,0.70,-0.02,-0.71,0.11,9.79,2.98,-3.64,-0.85,2.12,0.17,0.64,0.08,-0.76,0.02,10.81,1.82,-0.56,0.45,-1.23,0.38
11600,0.66,-0.02,-0.74,0.11,9.79,2.98,-3.64,-0.85,2.12,0.17,0.64,0.08,-0.76,0.02,10.81,1.82,-0.56,-0.19,-0.89,0.23
11620,0.66,-0.02,-0.74,0.11,10.45,0.76,-2.99,-0.85,2.12,0.17,0.63,0.07,-0.77,0.01,10.81,1.82,-0.56,-0.19,-0.89,0.23
11640,0.62,-0.02,-0.78,0.09,10.45,0.76,-2.99,-0.85,2.12,0.17,0.63,0.07,-0.77,0.01,10.81,1.82,-0.56,-0.80,-0.88,0.26
11660,0.62,-0.02,-0.78,0.09,8.56,-3.80,-2.04,-0.85,2.12,0.17,0.62,0.05,-0.79,0.00,10.81,1.82,-0.56,-0.80,-0.88,0.26
11680,0.58,-0.03,-0.81,0.08,8.56,-3.80,-2.04,-0.85,2.12,0.17,0.62,0.05,-0.79,0.00,9.16,-1.09,-0.64,-0.80,-0.88,0.26
11700,0.58,-0.03,-0.81,0.08,7.15,-2.92,-1.73,-0.85,2.12,0.17,0.60,0.05,-0.80,-0.00,9.16,-1.09,-0.64,-0.80,-0.88,0.26
11720,0.53,-0.03,-0.85,0.06,7.15,-2.92,-1.73,-0.85,2.12,0.17,0.60,0.05,-0.80,-0.00,9.16,-1.09,-0.64,-0.18,-1.00,0.21
11740,0.53,-0.03,-0.85,0.06,8.10,0.49,-0.89,-0.85,2.12,0.17,0.58,0.03,-0.81,-0.01,9.16,-1.09,-0.64,-0.18,-1.00,0.21
11760,0.49,-0.04,-0.87,0.05,8.10,0.49,-0.89,-0.85,2.12,0.17,0.58,0.03,-0.81,-0.01,9.16,-1.09,-0.64,-0.84,-1.48,0.28
11780,0.49,-0.04,-0.87,0.05,11.32,-1.50,2.87,-0.85,2.12,0.17,0.55,0.03,-0.84,-0.00,9.16,-1.09,-0.64,-0.84,-1.48,0.28
11800,0.47,-0.06,-0.88,0.02,11.32,-1.50,2.87,-0.85,2.12,0.17,0.55,0.03,-0.84,-0.00,9.16,-1.09,-0.64,0.66,-2.07,0.35
11820,0.47,-0.06,-0.88,0.02,11.32,-1.50,2.87,-2.04,-1.08,0.34,0.50,0.02,-0.87,-0.00,9.16,-1.09,-0.64,0.66,-2.07,0.35
11840,0.48,-0.08,-0.87,-0.01,11.32,-1.50,2.87,-2.04,-1.08,0.34,0.50,0.02,-0.87,-0.00,9.16,-1.09,-0.64,-0.26,-2.83,0.49
11860,0.48,-0.08,-0.87,-0.01,16.81,-2.99,4.44,-2.04,-1.08,0.34,0.44,0.01,-0.90,0.01,9.16,-1.09,-0.64,-0.26,-2.83,0.49
11880,0.52,-0.09,-0.85,-0.03,16.81,-2.99,4.44,-2.04,-1.08,0.34,0.44,0.01,-0.90,0.01,9.16,-1.09,-0.64,0.06,-3.59,0.87
11900,0.52,-0.09,-0.85,-0.03,16.81,-2.99,4.44,-0.96,2.79,-0.19,0.37,-0.01,-0.93,0.00,9.16,-1.09,-0.64,0.06,-3.59,0.87
11920,0.57,-0.09,-0.81,-0.06,16.81,-2.99,4.44,-0.96,2.79,-0.19,0.37,-0.01,-0.93,0.00,9.16,-1.09,-0.64,-0.56,-3.97,1.17
11940,0.57,-0.09,-0.81,-0.06,18.95,3.86,0.49,-0.96,2.79,-0.19,0.29,-0.04,-0.96,-0.03,9.16,-1.09,-0.64,-0.56,-3.97,1.17
11960,0.62,-0.10,-0.78,-0.07,18.95,3.86,0.49,-0.96,2.79,-0.19,0.29,-0.04,-0.96,-0.03,9.16,-1.09,-0.64,-2.43,-4.11,0.48
11980,0.62,-0.10,-0.78,-0.07,15.96,-6.33,-9.35,-0.96,2.79,-0.19,0.26,-0.04,-0.96,-0.01,9.16,-1.09,-0.64,-2.43,-4.11,0.48
12000,0.67,-0.10,-0.73,-0.04,15.96,-6.33,-9.35,-0.96,2.79,-0.19,0.26,-0.04,-0.96,-0.01,9.16,-1.09,-0.64,1.37,-0.98,0.22
12020,0.67,-0.10,-0.73,-0.04,15.96,-6.33,-9.35,1.54,3.58,0.98,0.29,-0.04,-0.96,-0.00,9.16,-1.09,-0.64,1.37,-0.98,0.22
12040,0.72,-0.10,-0.69,-0.02,15.96,-6.33,-9.35,1.54,3.58,0.98,0.29,-0.04,-0.96,-0.00,9.16,-1.09,-0.64,0.76,1.69,-0.13
12060,0.72,-0.10,-0.69,-0.02,10.67,-1.20,-8.01,1.54,3.58,0.98,0.36,-0.03,-0.93,0.01,9.16,-1.09,-0.64,0.76,1.69,-0.13
12080,0.75,-0.09,-0.65,0.02,10.67,-1.20,-8.01,1.54,3.58,0.98,0.36,-0.03,-0.93,0.01,9.16,-1.09,-0.64,1.00,4.02,-0.46
12100,0.75,-0.09,-0.65,0.02,5.46,-2.27,-7.25,1.54,3.58,0.98,0.45,-0.00,-0.89,0.03,9.16,-1.09,-0.64,1.00,4.02,-0.46
12120,0.77,-0.07,-0.63,0.06,5.46,-2.27,-7.25,1.54,3.58,0.98,0.45,-0.00,-0.89,0.03,3.30,2.55,-3.93,1.00,4.02,-0.46
12140,0.77,-0.07,-0.63,0.06,0.71,0.61,-7.82,1.54,3.58,0.98,0.55,0.02,-0.83,-0.01,3.30,2.55,-3.93,1.00,4.02,-0.46
12160,0.77,-0.03,-0.63,0.09,0.71,0.61,-7.82,1.54,3.58,0.98,0.55,0.02,-0.83,-0.01,3.30,2.55,-3.93,-1.36,5.66,-1.69
12180,0.77,-0.03,-0.63,0.09,0.71,0.61,-7.82,2.35,0.19,0.17,0.65,0.03,-0.76,-0.04,3.30,2.55,-3.93,-1.36,5.66,-1.69
12200,0.77,-0.01,-0.63,0.11,0.71,0.61,-7.82,2.35,0.19,0.17,0.65,0.03,-0.76,-0.04,3.30,2.55,-3.93,-1.29,6.21,-1.32
12220,0.77,-0.01,-0.63,0.11,3.47,2.29,-3.11,2.35,0.19,0.17,0.74,0.05,-0.67,-0.05,3.30,2.55,-3.93,-1.29,6.21,-1.32
12240,0.78,-0.01,-0.62,0.13,3.47,2.29,-3.11,2.35,0.19,0.17,0.74,0.05,-0.67,-0.05,3.30,2.55,-3.93,0.11,6.21,-1.17
12260,0.78,-0.01,-0.62,0.13,3.47,2.29,-3.11,0.39,0.75,0.42,0.79,0.04,-0.61,-0.08,3.30,2.55,-3.93,0.11,6.21,-1.17
12280,0.77,-0.02,-0.62,0.14,3.47,2.29,-3.11,0.39,0.75,0.42,0.79,0.04,-0.61,-0.08,3.30,2.55,-3.93,-1.74,3.67,-0.53
12300,0.77,-0.02,-0.62,0.14,11.17,1.22,9.34,0.39,0.75,0.42,0.80,0.03,-0.60,-0.07,3.30,2.55,-3.93,-1.74,3.67,-0.53
12320,0.77,-0.02,-0.62,0.15,11.17,1.22,9.34,0.39,0.75,0.42,0.80,0.03,-0.60,-0.07,3.30,2.55,-3.93,-0.08,0.17,0.52
12340,0.77,-0.02,-0.62,0.15,11.17,1.22,9.34,-0.26,-0.43,0.04,0.77,0.04,-0.64,-0.05,3.30,2.55,-3.93,-0.08,0.17,0.52
12360,0.76,-0.02,-0.64,0.15,11.17,1.22,9.34,-0.26,-0.43,0.04,0.77,0.04,-0.64,-0.05,3.30,2.55,-3.93,1.23,-2.74,0.60
12380,0.76,-0.02,-0.64,0.15,-3.69,0.03,-11.46,-0.26,-0.43,0.04,0.74,0.09,-0.67,-0.01,3.30,2.55,-3.93,1.23,-2.74,0.60
12400,0.74,-0.01,-0.65,0.15,-3.69,0.03,-11.46,-0.26,-0.43,0.04,0.74,0.09,-0.67,-0.01,3.30,2.55,-3.93,3.98,-2.15,0.40
12420,0.74,-0.01,-0.65,0.15,-3.69,0.03,-11.46,0.73,-2.38,-0.15,0.70,0.10,-0.70,0.02,3.30,2.55,-3.93,3.98,-2.15,0.40
12440,0.74,-0.03,-0.66,0.12,-3.69,0.03,-11.46,0.73,-2.38,-0.15,0.70,0.10,-0.70,0.02,3.30,2.55,-3.93,1.12,-2.40,0.95
12460,0.74,-0.03,-0.66,0.12,1.40,-4.79,-5.33,0.73,-2.38,-0.15,0.68,0.08,-0.73,0.02,3.30,2.55,-3.93,1.12,-2.40,0.95
12480,0.72,-0.05,-0.69,0.12,1.40,-4.79,-5.33,0.73,-2.38,-0.15,0.68,0.08,-0.73,0.02,11.54,-1.05,-7.04,1.12,-2.40,0.95
12500,0.72,-0.05,-0.69,0.12,1.40,-4.79,-5.33,-0.06,-1.59,0.76,0.66,0.09,-0.75,0.03,11.54,-1.05,-7.04,1.12,-2.40,0.95
12520,0.69,-0.02,-0.71,0.12,1.40,-4.79,-5.33,-0.06,-1.59,0.76,0.66,0.09,-0.75,0.03,11.54,-1.05,-7.04,0.97,-1.15,0.33
12540,0.69,-0.02,-0.71,0.12,8.49,2.37,-2.73,-0.06,-1.59,0.76,0.64,0.08,-0.76,0.03,11.54,-1.05,-7.04,0.97,-1.15,0.33
12560,0.66,-0.03,-0.75,0.11,8.49,2.37,-2.73,-0.06,-1.59,0.76,0.64,0.08,-0.76,0.03,10.50,0.75,-2.63,0.97,-1.15,0.33
12580,0.66,-0.03,-0.75,0.11,8.91,-1.84,-2.38,-0.06,-1.59,0.76,0.63,0.06,-0.78,0.01,10.50,0.75,-2.63,0.97,-1.15,0.33
12600,0.62,-0.03,-0.78,0.10,8.91,-1.84,-2.38,-0.06,-1.59,0.76,0.63,0.06,-0.78,0.01,10.50,0.75,-2.63,-0.97,-1.00,0.20
12620,0.62,-0.03,-0.78,0.10,7.61,-4.49,-1.96,-0.06,-1.59,0.76,0.61,0.06,-0.79,0.01,10.50,0.75,-2.63,-0.97,-1.00,0.20
12640,0.58,-0.03,-0.81,0.09,7.61,-4.49,-1.96,-0.06,-1.59,0.76,0.61,0.06,-0.79,0.01,10.50,0.75,-2.63,0.08,-0.81,0.10
12660,0.58,-0.03,-0.81,0.09,9.07,-0.96,-0.62,-0.06,-1.59,0.76,0.60,0.05,-0.80,0.01,10.50,0.75,-2.63,0.08,-0.81,0.10
12680,0.53,-0.03,-0.84,0.06,9.07,-0.96,-0.62,-0.06,-1.59,0.76,0.60,0.05,-0.80,0.01,10.50,0.75,-2.63,-0.59,-1.20,0.23
12700,0.53,-0.03,-0.84,0.06,8.50,-0.04,-0.23,-0.06,-1.59,0.76,0.57,0.04,-0.82,-0.00,10.50,0.75,-2.63,-0.59,-1.20,0.23
12720,0.49,-0.03,-0.87,0.05,8.50,-0.04,-0.23,-0.06,-1.59,0.76,0.57,0.04,-0.82,-0.00,10.50,0.75,-2.63,-0.75,-1.53,0.27
12740,0.49,-0.03,-0.87,0.05,10.37,-4.07,1.53,-0.06,-1.59,0.76,0.54,0.04,-0.84,0.01,10.50,0.75,-2.63,-0.75,-1.53,0.27
12760,0.48,-0.05,-0.88,0.03,10.37,-4.07,1.53,-0.06,-1.59,0.76,0.54,0.04,-0.84,0.01,10.50,0.75,-2.63,0.62,-2.04,0.33
12780,0.48,-0.05,-0.88,0.03,10.37,-4.07,1.53,-1.74,-0.75,0.27,0.49,0.03,-0.87,0.01,10.50,0.75,-2.63,0.62,-2.04,0.33
12800,0.50,-0.08,-0.86,-0.00,10.37,-4.07,1.53,-1.74,-0.75,0.27,0.49,0.03,-0.87,0.01,10.50,0.75,-2.63,-0.26,-3.03,0.53
12820,0.50,-0.08,-0.86,-0.00,18.83,-1.27,7.77,-1.74,-0.75,0.27,0.42,0.01,-0.91,0.01,10.50,0.75,-2.63,-0.26,-3.03,0.53
12840,0.54,-0.08,-0.84,-0.03,18.83,-1.27,7.77,-1.74,-0.75,0.27,0.42,0.01,-0.91,0.01,10.50,0.75,-2.63,-0.07,-3.93,0.94
12860,0.54,-0.08,-0.84,-0.03,18.83,-1.27,7.77,-0.59,1.96,-0.61,0.34,-0.01,-0.94,0.00,10.50,0.75,-2.63,-0.07,-3.93,0.94
12882,0.59,-0.08,-0.80,-0.05,18.83,-1.27,7.77,-0.59,1.96,-0.61,0.34,-0.01,-0.94,0.00,10.50,0.75,-2.63,-1.24,-4.25,1.14
12900,0.59,-0.08,-0.80,-0.05,15.20,-5.25,-2.73,-0.59,1.96,-0.61,0.27,-0.03,-0.96,-0.03,10.50,0.75,-2.63,-1.24,-4.25,1.14
12920,0.64,-0.09,-0.76,-0.04,15.20,-5.25,-2.73,-0.59,1.96,-0.61,0.27,-0.03,-0.96,-0.03,20.81,-9.52,-8.64,-1.24,-4.25,1.14
12940,0.64,-0.09,-0.76,-0.04,23.24,-5.75,-7.78,-0.59,1.96,-0.61,0.26,-0.03,-0.97,-0.00,20.81,-9.52,-8.64,-1.24,-4.25,1.14
12960,0.70,-0.09,-0.71,-0.01,23.24,-5.75,-7.78,-0.59,1.96,-0.61,0.26,-0.03,-0.97,-0.00,20.81,-9.52,-8.64,1.60,0.04,0.22
12980,0.70,-0.09,-0.71,-0.01,23.24,-5.75,-7.78,0.83,3.73,1.07,0.30,-0.02,-0.95,0.01,20.81,-9.52,-8.64,1.60,0.04,0.22
13000,0.74,-0.10,-0.66,0.00,23.24,-5.75,-7.78,0.83,3.73,1.07,0.30,-0.02,-0.95,0.01,4.03,-0.94,-1.14,1.60,0.04,0.22
13020,0.74,-0.10,-0.66,0.00,10.17,-0.20,-9.09,0.83,3.73,1.07,0.39,-0.01,-0.92,0.01,4.03,-0.94,-1.14,1.60,0.04,0.22
13040,0.77,-0.09,-0.63,0.04,10.17,-0.20,-9.09,0.83,3.73,1.07,0.39,-0.01,-0.92,0.01,4.03,-0.94,-1.14,0.32,4.80,-0.44
13060,0.77,-0.09,-0.63,0.04,1.44,-0.73,-7.70,0.83,3.73,1.07,0.49,0.00,-0.87,0.00,4.03,-0.94,-1.14,0.32,4.80,-0.44
13080,0.78,-0.06,-0.62,0.07,1.44,-0.73,-7.70,0.83,3.73,1.07,0.49,0.00,-0.87,0.00,4.03,-0.94,-1.14,-0.13,6.02,-1.20
13100,0.78,-0.06,-0.62,0.07,0.25,-0.31,-8.51,0.83,3.73,1.07,0.60,0.02,-0.80,-0.03,4.03,-0.94,-1.14,-0.13,6.02,-1.20
13120,0.77,-0.02,-0.63,0.10,0.25,-0.31,-8.51,0.83,3.73,1.07,0.60,0.02,-0.80,-0.03,4.03,-0.94,-1.14,-1.13,6.48,-1.58
13140,0.77,-0.02,-0.63,0.10,-1.32,2.29,-7.16,0.83,3.73,1.07,0.70,0.03,-0.71,-0.06,4.03,-0.94,-1.14,-1.13,6.48,-1.58
13160,0.77,-0.00,-0.63,0.12,-1.32,2.29,-7.16,0.83,3.73,1.07,0.70,0.03,-0.71,-0.06,4.03,-0.94,-1.14,-1.37,6.90,-1.23
13180,0.77,-0.00,-0.63,0.12,-1.32,2.29,-7.16,1.51,0.21,0.32,0.77,0.05,-0.63,-0.08,4.03,-0.94,-1.14,-1.37,6.90,-1.23
13200,0.78,-0.02,-0.61,0.13,-1.32,2.29,-7.16,1.51,0.21,0.32,0.77,0.05,-0.63,-0.08,4.03,-0.94,-1.14,-0.17,5.07,-1.02
13220,0.78,-0.02,-0.61,0.13,16.99,-1.77,10.49,1.51,0.21,0.32,0.80,0.04,-0.59,-0.08,4.03,-0.94,-1.14,-0.17,5.07,-1.02
13240,0.77,-0.01,-0.62,0.15,16.99,-1.77,10.49,1.51,0.21,0.32,0.80,0.04,-0.59,-0.08,4.03,-0.94,-1.14,-0.30,1.89,0.08
13260,0.77,-0.01,-0.62,0.15,16.99,-1.77,10.49,1.06,-0.97,0.12,0.78,0.04,-0.63,-0.06,4.03,-0.94,-1.14,-0.30,1.89,0.08
13280,0.78,-0.02,-0.61,0.15,16.99,-1.77,10.49,1.06,-0.97,0.12,0.78,0.04,-0.63,-0.06,4.03,-0.94,-1.14,0.94,-2.65,0.88
13300,0.78,-0.02,-0.61,0.15,15.31,-1.16,9.69,1.06,-0.97,0.12,0.74,0.11,-0.66,-0.01,4.03,-0.94,-1.14,0.94,-2.65,0.88
13320,0.76,0.01,-0.63,0.15,15.31,-1.16,9.69,1.06,-0.97,0.12,0.74,0.11,-0.66,-0.01,16.02,-4.08,-9.52,0.94,-2.65,0.88
13340,0.76,0.01,-0.63,0.15,15.31,-1.16,9.69,1.36,-2.35,-1.30,0.71,0.11,-0.70,0.03,16.02,-4.08,-9.52,0.94,-2.65,0.88
13360,0.75,-0.02,-0.65,0.12,15.31,-1.16,9.69,1.36,-2.35,-1.30,0.71,0.11,-0.70,0.03,16.02,-4.08,-9.52,1.00,-2.44,1.22
13380,0.75,-0.02,-0.65,0.12,3.05,-5.37,-12.88,1.36,-2.35,-1.30,0.68,0.09,-0.73,0.02,16.02,-4.08,-9.52,1.00,-2.44,1.22
13400,0.72,-0.04,-0.68,0.12,3.05,-5.37,-12.88,1.36,-2.35,-1.30,0.68,0.09,-0.73,0.02,16.02,-4.08,-9.52,-1.30,-2.05,0.65
13420,0.72,-0.04,-0.68,0.12,3.05,-5.37,-12.88,0.24,-1.70,0.93,0.66,0.10,-0.74,0.03,16.02,-4.08,-9.52,-1.30,-2.05,0.65
13440,0.69,0.00,-0.71,0.12,3.05,-5.37,-12.88,0.24,-1.70,0.93,0.66,0.10,-0.74,0.03,16.02,-4.08,-9.52,1.61,-0.87,0.19
13460,0.69,0.00,-0.71,0.12,7.42,5.28,-3.45,0.24,-1.70,0.93,0.65,0.10,-0.75,0.03,16.02,-4.08,-9.52,1.61,-0.87,0.19
13480,0.66,-0.00,-0.74,0.12,7.42,5.28,-3.45,0.24,-1.70,0.93,0.65,0.10,-0.75,0.03,16.02,-4.08,-9.52,-0.56,-0.93,0.33
13500,0.66,-0.00,-0.74,0.12,9.37,-1.35,-2.61,0.24,-1.70,0.93,0.64,0.08,-0.77,0.02,16.02,-4.08,-9.52,-0.56,-0.93,0.33
13520,0.62,-0.01,-0.78,0.11,9.37,-1.35,-2.61,0.24,-1.70,0.93,0.64,0.08,-0.77,0.02,16.02,-4.08,-9.52,-0.96,-0.89,0.19
13540,0.62,-0.01,-0.78,0.11,7.69,-3.34,-1.88,0.24,-1.70,0.93,0.62,0.08,-0.78,0.01,16.02,-4.08,-9.52,-0.96,-0.89,0.19
13560,0.57,-0.02,-0.82,0.08,7.69,-3.34,-1.88,0.24,-1.70,0.93,0.62,0.08,-0.78,0.01,16.02,-4.08,-9.52,-0.30,-0.84,0.18
13580,0.57,-0.02,-0.82,0.08,7.88,1.60,-0.89,0.24,-1.70,0.93,0.61,0.06,-0.79,0.00,16.02,-4.08,-9.52,-0.30,-0.84,0.18
13600,0.52,-0.02,-0.85,0.06,7.88,1.60,-0.89,0.24,-1.70,0.93,0.61,0.06,-0.79,0.00,16.02,-4.08,-9.52,-0.93,-1.20,0.27
13620,0.52,-0.02,-0.85,0.06,7.88,1.60,-0.89,-1.26,-3.32,-0.33,0.58,0.05,-0.81,-0.01,16.02,-4.08,-9.52,-0.93,-1.20,0.27
13640,0.49,-0.03,-0.87,0.06,7.88,1.60,-0.89,-1.26,-3.32,-0.33,0.58,0.05,-0.81,-0.01,7.59,-0.09,0.78,-0.93,-1.20,0.27
13660,0.49,-0.03,-0.87,0.06,10.37,-1.20,3.71,-1.26,-3.32,-0.33,0.55,0.05,-0.84,-0.00,7.59,-0.09,0.78,-0.93,-1.20,0.27
13680,0.47,-0.04,-0.88,0.03,10.37,-1.20,3.71,-1.26,-3.32,-0.33,0.55,0.05,-0.84,-0.00,7.59,-0.09,0.78,0.24,-2.19,0.38
13700,0.47,-0.04,-0.88,0.03,10.37,-1.20,3.71,-1.52,-0.85,0.17,0.50,0.04,-0.87,0.00,7.59,-0.09,0.78,0.24,-2.19,0.38
13720,0.49,-0.07,-0.87,-0.00,10.37,-1.20,3.71,-1.52,-0.85,0.17,0.50,0.04,-0.87,0.00,12.80,3.09,0.70,0.24,-2.19,0.38
13740,0.49,-0.07,-0.87,-0.00,18.95,-3.72,6.66,-1.52,-0.85,0.17,0.43,0.02,-0.90,0.00,12.80,3.09,0.70,0.24,-2.19,0.38
13760,0.54,-0.08,-0.84,-0.03,18.95,-3.72,6.66,-1.52,-0.85,0.17,0.43,0.02,-0.90,0.00,12.80,3.09,0.70,-0.27,-4.07,0.99
13780,0.54,-0.08,-0.84,-0.03,18.95,-3.72,6.66,-0.56,2.89,-0.47,0.35,-0.01,-0.94,-0.01,12.80,3.09,0.70,-0.27,-4.07,0.99
13800,0.59,-0.09,-0.80,-0.06,18.95,-3.72,6.66,-0.56,2.89,-0.47,0.35,-0.01,-0.94,-0.01,24.33,10.86,9.78,-0.27,-4.07,0.99
13820,0.59,-0.09,-0.80,-0.06,17.41,-4.68,-3.34,-0.56,2.89,-0.47,0.28,-0.03,-0.96,-0.04,24.33,10.86,9.78,-0.27,-4.07,0.99
13840,0.64,-0.10,-0.76,-0.05,17.41,-4.68,-3.34,-0.56,2.89,-0.47,0.28,-0.03,-0.96,-0.04,24.33,10.86,9.78,-2.09,-3.81,0.43
13860,0.64,-0.10,-0.76,-0.05,17.41,-4.68,-3.34,0.47,3.20,1.01,0.27,-0.04,-0.96,-0.02,24.33,10.86,9.78,-2.09,-3.81,0.43
13880,0.69,-0.10,-0.71,-0.03,17.41,-4.68,-3.34,0.47,3.20,1.01,0.27,-0.04,-0.96,-0.02,24.33,10.86,9.78,0.49,-0.03,1.05
13900,0.69,-0.10,-0.71,-0.03,17.57,-2.54,-7.59,0.47,3.20,1.01,0.32,-0.04,-0.95,-0.01,24.33,10.86,9.78,0.49,-0.03,1.05
13920,0.73,-0.11,-0.67,-0.01,17.57,-2.54,-7.59,0.47,3.20,1.01,0.32,-0.04,-0.95,-0.01,24.33,10.86,9.78,1.14,2.74,0.29
13940,0.73,-0.11,-0.67,-0.01,7.42,-1.12,-7.79,0.47,3.20,1.01,0.41,-0.03,-0.91,0.01,24.33,10.86,9.78,1.14,2.74,0.29
13960,0.76,-0.11,-0.64,0.02,7.42,-1.12,-7.79,0.47,3.20,1.01,0.41,-0.03,-0.91,0.01,24.33,10.86,9.78,1.32,5.10,-0.15
13980,0.76,-0.11,-0.64,0.02,3.20,-1.27,-6.71,0.47,3.20,1.01,0.51,-0.02,-0.86,0.01,24.33,10.86,9.78,1.32,5.10,-0.15
14000,0.77,-0.08,-0.63,0.06,3.20,-1.27,-6.71,0.47,3.20,1.01,0.51,-0.02,-0.86,0.01,24.33,10.86,9.78,0.05,5.88,-1.06
14020,0.77,-0.08,-0.63,0.06,0.91,0.03,-7.24,0.47,3.20,1.01,0.61,-0.01,-0.79,-0.04,24.33,10.86,9.78,0.05,5.88,-1.06
14040,0.77,-0.06,-0.63,0.09,0.91,0.03,-7.24,0.47,3.20,1.01,0.61,-0.01,-0.79,-0.04,10.35,-0.02,-7.00,0.05,5.88,-1.06
14060,0.77,-0.06,-0.63,0.09,0.91,0.03,-7.24,1.95,-0.34,0.36,0.71,0.01,-0.71,-0.06,10.35,-0.02,-7.00,0.05,5.88,-1.06
14080,0.77,-0.04,-0.63,0.12,0.91,0.03,-7.24,1.95,-0.34,0.36,0.71,0.01,-0.71,-0.06,10.35,-0.02,-7.00,-0.17,6.66,-1.30
14100,0.77,-0.04,-0.63,0.12,7.45,2.02,1.18,1.95,-0.34,0.36,0.77,0.01,-0.63,-0.09,10.35,-0.02,-7.00,-0.17,6.66,-1.30
14120,0.78,-0.05,-0.61,0.12,7.45,2.02,1.18,1.95,-0.34,0.36,0.77,0.01,-0.63,-0.09,14.02,-0.06,-11.36,-0.17,6.66,-1.30
14140,0.78,-0.05,-0.61,0.12,7.45,2.02,1.18,-0.30,1.19,0.72,0.80,0.01,-0.59,-0.09,14.02,-0.06,-11.36,-0.17,6.66,-1.30
14160,0.78,-0.04,-0.61,0.14,7.45,2.02,1.18,-0.30,1.19,0.72,0.80,0.01,-0.59,-0.09,14.02,-0.06,-11.36,-0.15,2.01,0.02
14180,0.78,-0.04,-0.61,0.14,8.91,0.72,10.14,-0.30,1.19,0.72,0.79,0.02,-0.61,-0.07,14.02,-0.06,-11.36,-0.15,2.01,0.02
14200,0.78,-0.03,-0.61,0.15,8.91,0.72,10.14,-0.30,1.19,0.72,0.79,0.02,-0.61,-0.07,14.02,-0.06,-11.36,1.31,-1.78,0.66
14220,0.78,-0.03,-0.61,0.15,8.91,0.72,10.14,1.21,0.89,-0.19,0.76,0.07,-0.64,-0.03,14.02,-0.06,-11.36,1.31,-1.78,0.66
14240,0.77,-0.03,-0.62,0.14,8.91,0.72,10.14,1.21,0.89,-0.19,0.76,0.07,-0.64,-0.03,21.50,14.19,14.00,1.31,-1.78,0.66
14260,0.77,-0.03,-0.62,0.14,46.11,-12.30,18.84,1.21,0.89,-0.19,0.72,0.09,-0.69,0.00,21.50,14.19,14.00,1.31,-1.78,0.66
14280,0.74,-0.03,-0.66,0.13,46.11,-12.30,18.84,1.21,0.89,-0.19,0.72,0.09,-0.69,0.00,21.50,14.19,14.00,1.49,-2.85,1.05
14300,0.74,-0.03,-0.66,0.13,46.11,-12.30,18.84,-0.48,-3.27,-1.04,0.69,0.09,-0.72,0.02,21.50,14.19,14.00,1.49,-2.85,1.05
14320,0.74,-0.05,-0.67,0.11,46.11,-12.30,18.84,-0.48,-3.27,-1.04,0.69,0.09,-0.72,0.02,21.50,14.19,14.00,0.38,-2.11,0.84
14340,0.74,-0.05,-0.67,0.11,3.05,-7.52,-8.16,-0.48,-3.27,-1.04,0.66,0.07,-0.74,0.02,21.50,14.19,14.00,0.38,-2.11,0.84
14360,0.71,-0.05,-0.69,0.11,3.05,-7.52,-8.16,-0.48,-3.27,-1.04,0.66,0.07,-0.74,0.02,21.50,14.19,14.00,-1.15,-1.91,0.46
14380,0.71,-0.05,-0.69,0.11,3.05,-7.52,-8.16,0.16,-2.22,-0.33,0.65,0.07,-0.76,0.02,21.50,14.19,14.00,-1.15,-1.91,0.46
14400,0.68,-0.04,-0.72,0.10,3.05,-7.52,-8.16,0.16,-2.22,-0.33,0.65,0.07,-0.76,0.02,21.50,14.19,14.00,0.43,-1.02,0.18
14420,0.68,-0.04,-0.72,0.10,9.49,-1.23,-3.37,0.16,-2.22,-0.33,0.63,0.06,-0.77,0.01,21.50,14.19,14.00,0.43,-1.02,0.18
14440,0.65,-0.04,-0.76,0.09,9.49,-1.23,-3.37,0.16,-2.22,-0.33,0.63,0.06,-0.77,0.01,9.89,-0.44,-1.71,0.43,-1.02,0.18
14460,0.65,-0.04,-0.76,0.09,8.72,-4.45,-2.54,0.16,-2.22,-0.33,0.62,0.05,-0.78,0.01,9.89,-0.44,-1.71,0.43,-1.02,0.18
14480,0.61,-0.04,-0.79,0.08,8.72,-4.45,-2.54,0.16,-2.22,-0.33,0.62,0.05,-0.78,0.01,9.89,-0.44,-1.71,-0.40,-0.79,0.09
14500,0.61,-0.04,-0.79,0.08,7.46,-1.42,-1.35,0.16,-2.22,-0.33,0.61,0.05,-0.79,0.01,9.89,-0.44,-1.71,-0.40,-0.79,0.09
14520,0.56,-0.03,-0.82,0.07,7.46,-1.42,-1.35,0.16,-2.22,-0.33,0.61,0.05,-0.79,0.01,9.62,1.90,-2.59,-0.40,-0.79,0.09
14540,0.56,-0.03,-0.82,0.07,7.46,-1.42,-1.35,-1.07,-2.66,-0.52,0.59,0.03,-0.81,-0.01,9.62,1.90,-2.59,-0.40,-0.79,0.09
14560,0.51,-0.04,-0.86,0.04,7.46,-1.42,-1.35,-1.07,-2.66,-0.52,0.59,0.03,-0.81,-0.01,9.62,1.90,-2.59,-1.22,-1.26,0.24
14580,0.51,-0.04,-0.86,0.04,9.99,-4.07,0.57,-1.07,-2.66,-0.52,0.56,0.03,-0.83,-0.01,9.62,1.90,-2.59,-1.22,-1.26,0.24
14600,0.48,-0.05,-0.87,0.03,9.99,-4.07,0.57,-1.07,-2.66,-0.52,0.56,0.03,-0.83,-0.01,8.67,-0.79,0.74,-1.22,-1.26,0.24
14620,0.48,-0.05,-0.87,0.03,9.99,-4.07,0.57,-0.90,-1.46,0.08,0.52,0.02,-0.85,-0.01,8.67,-0.79,0.74,-1.22,-1.26,0.24
14640,0.48,-0.08,-0.87,0.00,9.99,-4.07,0.57,-0.90,-1.46,0.08,0.52,0.02,-0.85,-0.01,8.67,-0.79,0.74,0.06,-2.55,0.37
14660,0.48,-0.08,-0.87,0.00,16.34,-4.07,2.75,-0.90,-1.46,0.08,0.46,0.01,-0.89,-0.01,8.67,-0.79,0.74,0.06,-2.55,0.37
14680,0.51,-0.10,-0.85,-0.03,16.34,-4.07,2.75,-0.90,-1.46,0.08,0.46,0.01,-0.89,-0.01,15.79,4.58,-0.75,0.06,-2.55,0.37
14700,0.51,-0.10,-0.85,-0.03,16.34,-4.07,2.75,-1.90,2.37,-0.01,0.39,-0.01,-0.92,-0.01,15.79,4.58,-0.75,0.06,-2.55,0.37
14720,0.55,-0.09,-0.83,-0.06,16.34,-4.07,2.75,-1.90,2.37,-0.01,0.39,-0.01,-0.92,-0.01,15.79,4.58,-0.75,-0.39,-4.01,0.84
14740,0.55,-0.09,-0.83,-0.06,18.68,0.03,10.38,-1.90,2.37,-0.01,0.31,-0.04,-0.95,-0.04,15.79,4.58,-0.75,-0.39,-4.01,0.84
14760,0.60,-0.10,-0.79,-0.08,18.68,0.03,10.38,-1.90,2.37,-0.01,0.31,-0.04,-0.95,-0.04,15.79,4.58,-0.75,-3.05,-4.47,0.44
14780,0.60,-0.10,-0.79,-0.08,18.68,0.03,10.38,-0.98,3.01,0.52,0.26,-0.04,-0.96,-0.03,15.79,4.58,-0.75,-3.05,-4.47,0.44
14800,0.66,-0.09,-0.75,-0.04,18.68,0.03,10.38,-0.98,3.01,0.52,0.26,-0.04,-0.96,-0.03,15.79,4.58,-0.75,1.64,-1.92,0.18
14820,0.66,-0.09,-0.75,-0.04,22.05,-3.84,-9.93,-0.98,3.01,0.52,0.28,-0.04,-0.96,-0.01,15.79,4.58,-0.75,1.64,-1.92,0.18
14840,0.71,-0.10,-0.70,-0.02,22.05,-3.84,-9.93,-0.98,3.01,0.52,0.28,-0.04,-0.96,-0.01,15.79,4.58,-0.75,0.78,1.09,0.10
14860,0.71,-0.10,-0.70,-0.02,13.39,0.57,-8.51,-0.98,3.01,0.52,0.35,-0.03,-0.94,0.01,15.79,4.58,-0.75,0.78,1.09,0.10
14880,0.74,-0.10,-0.66,0.00,13.39,0.57,-8.51,-0.98,3.01,0.52,0.35,-0.03,-0.94,0.01,4.10,-1.21,-3.43,0.78,1.09,0.10
14900,0.74,-0.10,-0.66,0.00,7.34,-0.04,-7.21,-0.98,3.01,0.52,0.44,-0.02,-0.90,0.01,4.10,-1.21,-3.43,0.78,1.09,0.10
14920,0.76,-0.09,-0.64,0.04,7.34,-0.04,-7.21,-0.98,3.01,0.52,0.44,-0.02,-0.90,0.01,4.10,-1.21,-3.43,0.50,5.68,-0.47
14940,0.76,-0.09,-0.64,0.04,2.17,1.03,-7.05,-0.98,3.01,0.52,0.55,-0.02,-0.84,-0.03,4.10,-1.21,-3.43,0.50,5.68,-0.47
14960,0.77,-0.07,-0.63,0.06,2.17,1.03,-7.05,-0.98,3.01,0.52,0.55,-0.02,-0.84,-0.03,4.10,-1.21,-3.43,-2.14,6.15,-0.93
14980,0.77,-0.07,-0.63,0.06,2.17,1.03,-7.05,1.70,0.07,0.25,0.65,-0.02,-0.76,-0.08,4.10,-1.21,-3.43,-2.14,6.15,-0.93
15000,0.77,-0.06,-0.63,0.09,2.17,1.03,-7.05,1.70,0.07,0.25,0.65,-0.02,-0.76,-0.08,4.10,-1.21,-3.43,-1.58,6.43,-0.85
15020,0.77,-0.06,-0.63,0.09,2.02,0.84,-2.50,1.70,0.07,0.25,0.74,0.00,-0.67,-0.09,4.10,-1.21,-3.43,-1.58,6.43,-0.85
15040,0.78,-0.06,-0.61,0.11,2.02,0.84,-2.50,1.70,0.07,0.25,0.74,0.00,-0.67,-0.09,12.76,-1.17,-10.06,-1.58,6.43,-0.85
15060,0.78,-0.06,-0.61,0.11,2.02,0.84,-2.50,0.84,1.41,0.93,0.79,0.01,-0.60,-0.10,12.76,-1.17,-10.06,-1.58,6.43,-0.85
15080,0.79,-0.06,-0.60,0.12,2.02,0.84,-2.50,0.84,1.41,0.93,0.79,0.01,-0.60,-0.10,12.76,-1.17,-10.06,-0.74,3.77,-0.46
15100,0.79,-0.06,-0.60,0.12,10.87,0.38,11.45,0.84,1.41,0.93,0.80,0.01,-0.60,-0.10,12.76,-1.17,-10.06,-0.74,3.77,-0.46
15120,0.78,-0.03,-0.61,0.14,10.87,0.38,11.45,0.84,1.41,0.93,0.80,0.01,-0.60,-0.10,12.76,-1.17,-10.06,0.47,0.14,0.37
15140,0.78,-0.03,-0.61,0.14,10.87,0.38,11.45,1.51,-0.83,-0.19,0.77,0.04,-0.63,-0.06,12.76,-1.17,-10.06,0.47,0.14,0.37
15160,0.76,-0.03,-0.63,0.14,10.87,0.38,11.45,1.51,-0.83,-0.19,0.77,0.04,-0.63,-0.06,12.76,-1.17,-10.06,2.42,-2.54,0.68
15180,0.76,-0.03,-0.63,0.14,-8.82,0.34,-16.21,1.51,-0.83,-0.19,0.74,0.10,-0.66,-0.01,12.76,-1.17,-10.06,2.42,-2.54,0.68
15200,0.76,-0.02,-0.64,0.14,-8.82,0.34,-16.21,1.51,-0.83,-0.19,0.74,0.10,-0.66,-0.01,12.76,-1.17,-10.06,4.50,-2.09,0.05
15220,0.76,-0.02,-0.64,0.14,-8.82,0.34,-16.21,1.35,-0.40,0.06,0.71,0.11,-0.70,0.02,12.76,-1.17,-10.06,4.50,-2.09,0.05
15240,0.74,-0.03,-0.66,0.11,-8.82,0.34,-16.21,1.35,-0.40,0.06,0.71,0.11,-0.70,0.02,12.76,-1.17,-10.06,1.38,-2.39,1.10
15260,0.74,-0.03,-0.66,0.11,5.43,0.41,-13.38,1.35,-0.40,0.06,0.68,0.09,-0.73,0.02,12.76,-1.17,-10.06,1.38,-2.39,1.10
15280,0.72,-0.05,-0.68,0.11,5.43,0.41,-13.38,1.35,-0.40,0.06,0.68,0.09,-0.73,0.02,10.28,-5.54,-5.81,1.38,-2.39,1.10
15300,0.72,-0.05,-0.68,0.11,11.44,-16.64,-6.94,1.35,-0.40,0.06,0.66,0.09,-0.75,0.03,10.28,-5.54,-5.81,1.38,-2.39,1.10
15320,0.70,-0.03,-0.71,0.11,11.44,-16.64,-6.94,1.35,-0.40,0.06,0.66,0.09,-0.75,0.03,11.85,-2.39,-2.78,1.38,-2.39,1.10
15340,0.70,-0.03,-0.71,0.11,9.71,3.63,-2.61,1.35,-0.40,0.06,0.64,0.08,-0.76,0.03,11.85,-2.39,-2.78,1.38,-2.39,1.10
15360,0.66,-0.03,-0.74,0.10,9.71,3.63,-2.61,1.35,-0.40,0.06,0.64,0.08,-0.76,0.03,11.08,0.90,-3.36,1.38,-2.39,1.10
15380,0.66,-0.03,-0.74,0.10,9.57,-0.66,-2.80,1.35,-0.40,0.06,0.63,0.07,-0.77,0.02,11.08,0.90,-3.36,1.38,-2.39,1.10
15400,0.63,-0.03,-0.77,0.09,9.57,-0.66,-2.80,1.35,-0.40,0.06,0.63,0.07,-0.77,0.02,11.08,0.90,-3.36,-0.93,-0.97,0.26
15420,0.63,-0.03,-0.77,0.09,7.37,-4.41,-2.04,1.35,-0.40,0.06,0.62,0.06,-0.78,0.01,11.08,0.90,-3.36,-0.93,-0.97,0.26
15440,0.59,-0.03,-0.81,0.08,7.37,-4.41,-2.04,1.35,-0.40,0.06,0.62,0.06,-0.78,0.01,8.77,-1.32,-0.79,-0.93,-0.97,0.26
15460,0.59,-0.03,-0.81,0.08,10.03,-1.12,-1.31,1.35,-0.40,0.06,0.60,0.05,-0.80,0.01,8.77,-1.32,-0.79,-0.93,-0.97,0.26
15480,0.54,-0.04,-0.84,0.06,10.03,-1.12,-1.31,1.35,-0.40,0.06,0.60,0.05,-0.80,0.01,8.77,-1.32,-0.79,-0.53,-1.17,0.28
15500,0.54,-0.04,-0.84,0.06,10.03,-1.12,-1.31,-1.45,-3.01,-0.33,0.58,0.04,-0.82,-0.00,8.77,-1.32,-0.79,-0.53,-1.17,0.28
15520,0.50,-0.05,-0.86,0.05,10.03,-1.12,-1.31,-1.45,-3.01,-0.33,0.58,0.04,-0.82,-0.00,8.77,-1.32,-0.79,-0.79,-1.68,0.32
15540,0.50,-0.05,-0.86,0.05,10.03,-1.12,-1.31,-0.60,-1.82,0.03,0.54,0.03,-0.84,0.00,8.77,-1.32,-0.79,-0.79,-1.68,0.32
15560,0.49,-0.07,-0.87,0.02,10.03,-1.12,-1.31,-0.60,-1.82,0.03,0.54,0.03,-0.84,0.00,8.77,-1.32,-0.79,0.30,-2.21,0.38
15580,0.49,-0.07,-0.87,0.02,14.46,-1.61,1.80,-0.60,-1.82,0.03,0.49,0.02,-0.87,0.01,8.77,-1.32,-0.79,0.30,-2.21,0.38
15600,0.51,-0.09,-0.86,-0.01,14.46,-1.61,1.80,-0.60,-1.82,0.03,0.49,0.02,-0.87,0.01,8.77,-1.32,-0.79,-0.09,-3.02,0.57
15620,0.51,-0.09,-0.86,-0.01,14.46,-1.61,1.80,-1.98,1.44,0.13,0.43,0.01,-0.90,0.01,8.77,-1.32,-0.79,-0.09,-3.02,0.57
15640,0.54,-0.10,-0.84,-0.04,14.46,-1.61,1.80,-1.98,1.44,0.13,0.43,0.01,-0.90,0.01,18.97,4.96,3.00,-0.09,-3.02,0.57
15660,0.54,-0.10,-0.84,-0.04,18.06,-6.55,9.42,-1.98,1.44,0.13,0.36,-0.02,-0.93,-0.00,18.97,4.96,3.00,-0.09,-3.02,0.57
15680,0.58,-0.10,-0.80,-0.07,18.06,-6.55,9.42,-1.98,1.44,0.13,0.36,-0.02,-0.93,-0.00,18.97,4.96,3.00,-1.35,-3.92,0.99
15700,0.58,-0.10,-0.80,-0.07,18.06,-6.55,9.42,-1.46,2.73,-0.21,0.28,-0.04,-0.96,-0.03,18.97,4.96,3.00,-1.35,-3.92,0.99
15720,0.63,-0.11,-0.77,-0.07,18.06,-6.55,9.42,-1.46,2.73,-0.21,0.28,-0.04,-0.96,-0.03,19.50,-11.63,-9.83,-1.35,-3.92,0.99
15740,0.63,-0.11,-0.77,-0.07,18.06,-6.55,9.42,0.86,2.99,0.76,0.27,-0.04,-0.96,-0.00,19.50,-11.63,-9.83,-1.35,-3.92,0.99
15760,0.68,-0.10,-0.72,-0.03,18.06,-6.55,9.42,0.86,2.99,0.76,0.27,-0.04,-0.96,-0.00,19.50,-11.63,-9.83,1.04,-0.29,0.65
15780,0.68,-0.10,-0.72,-0.03,17.76,-1.04,-6.17,0.86,2.99,0.76,0.31,-0.04,-0.95,0.01,19.50,-11.63,-9.83,1.04,-0.29,0.65
15800,0.72,-0.10,-0.68,-0.02,17.76,-1.04,-6.17,0.86,2.99,0.76,0.31,-0.04,-0.95,0.01,4.48,0.02,-1.71,1.04,-0.29,0.65
15820,0.72,-0.10,-0.68,-0.02,9.26,-0.66,-7.40,0.86,2.99,0.76,0.39,-0.03,-0.92,0.01,4.48,0.02,-1.71,1.04,-0.29,0.65
15840,0.75,-0.10,-0.65,0.01,9.26,-0.66,-7.40,0.86,2.99,0.76,0.39,-0.03,-0.92,0.01,4.48,0.02,-1.71,0.43,4.40,-0.40
15860,0.75,-0.10,-0.65,0.01,4.24,-0.89,-7.02,0.86,2.99,0.76,0.48,-0.02,-0.87,0.01,4.48,0.02,-1.71,0.43,4.40,-0.40
15880,0.77,-0.08,-0.63,0.04,4.24,-0.89,-7.02,0.86,2.99,0.76,0.48,-0.02,-0.87,0.01,4.26,1.71,-4.47,0.43,4.40,-0.40
15900,0.77,-0.08,-0.63,0.04,1.94,-0.16,-7.36,0.86,2.99,0.76,0.58,-0.01,-0.81,-0.03,4.26,1.71,-4.47,0.43,4.40,-0.40
15920,0.77,-0.06,-0.63,0.07,1.94,-0.16,-7.36,0.86,2.99,0.76,0.58,-0.01,-0.81,-0.03,4.26,1.71,-4.47,-1.67,5.92,-1.47
15940,0.77,-0.06,-0.63,0.07,1.94,-0.16,-7.36,1.71,-0.13,0.33,0.68,-0.01,-0.73,-0.08,4.26,1.71,-4.47,-1.67,5.92,-1.47
15960,0.78,-0.05,-0.62,0.09,1.94,-0.16,-7.36,1.71,-0.13,0.33,0.68,-0.01,-0.73,-0.08,14.18,1.02,-9.26,-1.67,5.92,-1.47
15980,0.78,-0.05,-0.62,0.09,1.94,-0.16,-7.36,0.87,0.38,0.42,0.75,0.00,-0.65,-0.10,14.18,1.02,-9.26,-1.67,5.92,-1.47
16000,0.79,-0.06,-0.60,0.11,1.94,-0.16,-7.36,0.87,0.38,0.42,0.75,0.00,-0.65,-0.10,12.72,-3.39,-10.83,-1.67,5.92,-1.47
16020,0.79,-0.06,-0.60,0.11,10.45,-2.27,2.56,0.87,0.38,0.42,0.79,-0.01,-0.60,-0.11,12.72,-3.39,-10.83,-1.67,5.92,-1.47
16040,0.79,-0.06,-0.60,0.12,10.45,-2.27,2.56,0.87,0.38,0.42,0.79,-0.01,-0.60,-0.11,6.75,-1.17,-14.62,-1.67,5.92,-1.47
16060,0.79,-0.06,-0.60,0.12,10.45,-2.27,2.56,0.62,-0.66,0.37,0.78,0.00,-0.62,-0.09,6.75,-1.17,-14.62,-1.67,5.92,-1.47
16080,0.78,-0.04,-0.60,0.13,10.45,-2.27,2.56,0.62,-0.66,0.37,0.78,0.00,-0.62,-0.09,3.49,-2.62,-15.42,-1.67,5.92,-1.47
16100,0.78,-0.04,-0.60,0.13,11.98,-2.07,7.54,0.62,-0.66,0.37,0.76,0.05,-0.65,-0.05,3.49,-2.62,-15.42,-1.67,5.92,-1.47
16120,0.77,-0.04,-0.63,0.12,11.98,-2.07,7.54,0.62,-0.66,0.37,0.76,0.05,-0.65,-0.05,3.49,-2.62,-15.42,3.22,-1.32,-0.16
16140,0.77,-0.04,-0.63,0.12,11.98,-2.07,7.54,-0.96,-1.29,-0.39,0.73,0.07,-0.68,-0.02,3.49,-2.62,-15.42,3.22,-1.32,-0.16
16160,0.74,-0.03,-0.66,0.13,11.98,-2.07,7.54,-0.96,-1.29,-0.39,0.73,0.07,-0.68,-0.02,3.49,-2.62,-15.42,1.68,-2.58,1.05
16180,0.74,-0.03,-0.66,0.13,0.41,14.79,0.84,-0.96,-1.29,-0.39,0.70,0.07,-0.71,0.00,3.49,-2.62,-15.42,1.68,-2.58,1.05
16200,0.73,-0.05,-0.67,0.10,0.41,14.79,0.84,-0.96,-1.29,-0.39,0.70,0.07,-0.71,0.00,6.25,-0.36,-6.00,1.68,-2.58,1.05
16220,0.73,-0.05,-0.67,0.10,0.41,14.79,0.84,-2.17,0.37,-0.05,0.68,0.06,-0.74,0.00,6.25,-0.36,-6.00,1.68,-2.58,1.05
16240,0.71,-0.06,-0.69,0.10,0.41,14.79,0.84,-2.17,0.37,-0.05,0.68,0.06,-0.74,0.00,6.25,-0.36,-6.00,-0.57,-1.69,0.61
16260,0.71,-0.06,-0.69,0.10,13.47,-7.97,-4.72,-2.17,0.37,-0.05,0.66,0.06,-0.75,0.01,6.25,-0.36,-6.00,-0.57,-1.69,0.61
16280,0.68,-0.04,-0.73,0.10,13.47,-7.97,-4.72,-2.17,0.37,-0.05,0.66,0.06,-0.75,0.01,8.20,1.93,-3.28,-0.57,-1.69,0.61
16300,0.68,-0.04,-0.73,0.10,8.88,1.11,-2.50,-2.17,0.37,-0.05,0.65,0.04,-0.76,-0.00,8.20,1.93,-3.28,-0.57,-1.69,0.61
16320,0.65,-0.05,-0.76,0.08,8.88,1.11,-2.50,-2.17,0.37,-0.05,0.65,0.04,-0.76,-0.00,8.20,1.93,-3.28,-1.15,-1.05,0.32
16340,0.65,-0.05,-0.76,0.08,8.04,-3.61,-1.57,-2.17,0.37,-0.05,0.63,0.03,-0.78,-0.01,8.20,1.93,-3.28,-1.15,-1.05,0.32
16360,0.61,-0.05,-0.79,0.08,8.04,-3.61,-1.57,-2.17,0.37,-0.05,0.63,0.03,-0.78,-0.01,9.62,-2.09,0.09,-1.15,-1.05,0.32
16380,0.61,-0.05,-0.79,0.08,6.73,-4.49,-0.31,-2.17,0.37,-0.05,0.62,0.03,-0.79,-0.01,9.62,-2.09,0.09,-1.15,-1.05,0.32
16400,0.57,-0.04,-0.82,0.07,6.73,-4.49,-0.31,-2.17,0.37,-0.05,0.62,0.03,-0.79,-0.01,8.47,-0.36,-1.25,-1.15,-1.05,0.32
16420,0.57,-0.04,-0.82,0.07,6.73,-4.49,-0.31,-0.51,-2.37,-0.37,0.59,0.02,-0.81,-0.01,8.47,-0.36,-1.25,-1.15,-1.05,0.32
16440,0.52,-0.05,-0.85,0.04,6.73,-4.49,-0.31,-0.51,-2.37,-0.37,0.59,0.02,-0.81,-0.01,8.47,-0.36,-1.25,-0.74,-1.50,0.26
16460,0.52,-0.05,-0.85,0.04,9.64,-2.11,-0.08,-0.51,-2.37,-0.37,0.56,0.02,-0.83,-0.01,8.47,-0.36,-1.25,-0.74,-1.50,0.26
16480,0.49,-0.06,-0.87,0.03,9.64,-2.11,-0.08,-0.51,-2.37,-0.37,0.56,0.02,-0.83,-0.01,8.85,-0.06,0.51,-0.74,-1.50,0.26
16500,0.49,-0.06,-0.87,0.03,9.64,-2.11,-0.08,-1.01,-1.20,0.20,0.52,0.01,-0.85,-0.01,8.85,-0.06,0.51,-0.74,-1.50,0.26
16520,0.49,-0.09,-0.87,0.00,9.64,-2.11,-0.08,-1.01,-1.20,0.20,0.52,0.01,-0.85,-0.01,8.85,-0.06,0.51,-0.44,-2.71,0.50
16540,0.49,-0.09,-0.87,0.00,15.88,-2.30,3.33,-1.01,-1.20,0.20,0.46,-0.01,-0.89,-0.00,8.85,-0.06,0.51,-0.44,-2.71,0.50
16560,0.52,-0.11,-0.84,-0.04,15.88,-2.30,3.33,-1.01,-1.20,0.20,0.46,-0.01,-0.89,-0.00,16.79,5.34,1.09,-0.44,-2.71,0.50
16580,0.52,-0.11,-0.84,-0.04,15.88,-2.30,3.33,-2.41,3.09,0.03,0.39,-0.03,-0.92,-0.00,16.79,5.34,1.09,-0.44,-2.71,0.50
16600,0.57,-0.10,-0.81,-0.07,15.88,-2.30,3.33,-2.41,3.09,0.03,0.39,-0.03,-0.92,-0.00,24.14,11.36,8.59,-0.44,-2.71,0.50
16620,0.57,-0.10,-0.81,-0.07,17.11,0.45,9.57,-2.41,3.09,0.03,0.30,-0.06,-0.95,-0.04,24.14,11.36,8.59,-0.44,-2.71,0.50
16640,0.61,-0.12,-0.77,-0.09,17.11,0.45,9.57,-2.41,3.09,0.03,0.30,-0.06,-0.95,-0.04,24.14,11.36,8.59,-3.00,-4.47,0.58
16660,0.61,-0.12,-0.77,-0.09,17.11,0.45,9.57,-1.23,3.07,0.72,0.27,-0.06,-0.96,-0.02,24.14,11.36,8.59,-3.00,-4.47,0.58
16680,0.67,-0.11,-0.73,-0.05,17.11,0.45,9.57,-1.23,3.07,0.72,0.27,-0.06,-0.96,-0.02,11.27,-9.14,-9.98,-3.00,-4.47,0.58
16700,0.67,-0.11,-0.73,-0.05,21.18,-3.57,-11.00,-1.23,3.07,0.72,0.30,-0.07,-0.95,-0.01,11.27,-9.14,-9.98,-3.00,-4.47,0.58
16720,0.71,-0.12,-0.69,-0.04,21.18,-3.57,-11.00,-1.23,3.07,0.72,0.30,-0.07,-0.95,-0.01,11.27,-9.14,-9.98,0.41,1.84,0.13
16740,0.71,-0.12,-0.69,-0.04,15.04,3.29,-7.90,-1.23,3.07,0.72,0.37,-0.06,-0.93,-0.01,11.27,-9.14,-9.98,0.41,1.84,0.13
16760,0.75,-0.13,-0.65,-0.02,15.04,3.29,-7.90,-1.23,3.07,0.72,0.37,-0.06,-0.93,-0.01,4.26,-1.82,-2.94,0.41,1.84,0.13
16780,0.75,-0.13,-0.65,-0.02,4.35,-3.38,-7.44,-1.23,3.07,0.72,0.47,-0.04,-0.88,-0.00,4.26,-1.82,-2.94,0.41,1.84,0.13
16800,0.77,-0.11,-0.63,0.02,4.35,-3.38,-7.44,-1.23,3.07,0.72,0.47,-0.04,-0.88,-0.00,4.80,-2.43,-5.12,0.41,1.84,0.13
16820,0.77,-0.11,-0.63,0.02,3.13,-0.70,-6.64,-1.23,3.07,0.72,0.57,-0.02,-0.82,-0.04,4.80,-2.43,-5.12,0.41,1.84,0.13
16840,0.77,-0.08,-0.63,0.05,3.13,-0.70,-6.64,-1.23,3.07,0.72,0.57,-0.02,-0.82,-0.04,7.13,6.72,-5.66,0.41,1.84,0.13
16860,0.77,-0.08,-0.63,0.05,3.13,-0.70,-6.64,2.14,0.36,0.26,0.66,-0.04,-0.74,-0.09,7.13,6.72,-5.66,0.41,1.84,0.13
16880,0.78,-0.06,-0.62,0.07,3.13,-0.70,-6.64,2.14,0.36,0.26,0.66,-0.04,-0.74,-0.09,11.69,-2.51,-9.03,0.41,1.84,0.13
16900,0.78,-0.06,-0.62,0.07,2.44,2.63,-2.23,2.14,0.36,0.26,0.74,-0.01,-0.66,-0.10,11.69,-2.51,-9.03,0.41,1.84,0.13
16920,0.79,-0.06,-0.60,0.09,2.44,2.63,-2.23,2.14,0.36,0.26,0.74,-0.01,-0.66,-0.10,11.69,-2.51,-9.03,0.67,5.92,-0.80
16940,0.79,-0.06,-0.60,0.09,2.44,2.63,-2.23,0.20,0.86,0.81,0.79,-0.01,-0.60,-0.12,11.69,-2.51,-9.03,0.67,5.92,-0.80
16960,0.79,-0.07,-0.60,0.11,2.44,2.63,-2.23,0.20,0.86,0.81,0.79,-0.01,-0.60,-0.12,11.69,-2.51,-9.03,-1.36,3.21,-0.24
16980,0.79,-0.07,-0.60,0.11,10.94,-2.15,8.19,0.20,0.86,0.81,0.79,-0.01,-0.60,-0.11,11.69,-2.51,-9.03,-1.36,3.21,-0.24
17000,0.79,-0.05,-0.60,0.12,10.94,-2.15,8.19,0.20,0.86,0.81,0.79,-0.01,-0.60,-0.11,2.77,-1.59,-13.82,-1.36,3.21,-0.24
17020,0.79,-0.05,-0.60,0.12,10.94,-2.15,8.19,0.88,-0.25,-0.13,0.76,0.02,-0.64,-0.07,2.77,-1.59,-13.82,-1.36,3.21,-0.24
17040,0.77,-0.05,-0.62,0.12,10.94,-2.15,8.19,0.88,-0.25,-0.13,0.76,0.02,-0.64,-0.07,2.77,-1.59,-13.82,2.51,-2.52,0.38
17060,0.77,-0.05,-0.62,0.12,-2.58,-1.80,-12.95,0.88,-0.25,-0.13,0.73,0.07,-0.68,-0.02,2.77,-1.59,-13.82,2.51,-2.52,0.38
17080,0.75,-0.04,-0.65,0.12,-2.58,-1.80,-12.95,0.88,-0.25,-0.13,0.73,0.07,-0.68,-0.02,17.70,4.81,-12.40,2.51,-2.52,0.38
17100,0.75,-0.04,-0.65,0.12,-2.58,-1.80,-12.95,0.37,-3.47,0.74,0.70,0.07,-0.71,-0.00,17.70,4.81,-12.40,2.51,-2.52,0.38
17120,0.75,-0.07,-0.66,0.08,-2.58,-1.80,-12.95,0.37,-3.47,0.74,0.70,0.07,-0.71,-0.00,17.70,4.81,-12.40,0.08,-2.30,0.93
17140,0.75,-0.07,-0.66,0.08,0.48,-4.72,-6.36,0.37,-3.47,0.74,0.67,0.05,-0.74,-0.01,17.70,4.81,-12.40,0.08,-2.30,0.93
17160,0.72,-0.07,-0.68,0.09,0.48,-4.72,-6.36,0.37,-3.47,0.74,0.67,0.05,-0.74,-0.01,12.72,-3.93,-5.62,0.08,-2.30,0.93
17180,0.72,-0.07,-0.68,0.09,12.28,-19.50,-8.20,0.37,-3.47,0.74,0.66,0.06,-0.75,0.01,12.72,-3.93,-5.62,0.08,-2.30,0.93
17200,0.69,-0.05,-0.71,0.09,12.28,-19.50,-8.20,0.37,-3.47,0.74,0.66,0.06,-0.75,0.01,12.72,-3.93,-5.62,1.22,-0.83,0.19
17220,0.69,-0.05,-0.71,0.09,8.72,2.71,-3.84,0.37,-3.47,0.74,0.64,0.04,-0.77,0.00,12.72,-3.93,-5.62,1.22,-0.83,0.19
17240,0.66,-0.05,-0.75,0.09,8.72,2.71,-3.84,0.37,-3.47,0.74,0.64,0.04,-0.77,0.00,10.42,0.48,-3.24,1.22,-0.83,0.19
17260,0.66,-0.05,-0.75,0.09,9.07,-1.04,-2.07,0.37,-3.47,0.74,0.63,0.03,-0.78,-0.01,10.42,0.48,-3.24,1.22,-0.83,0.19
17280,0.62,-0.05,-0.78,0.08,9.07,-1.04,-2.07,0.37,-3.47,0.74,0.63,0.03,-0.78,-0.01,9.13,-0.82,-0.64,1.22,-0.83,0.19
17300,0.62,-0.05,-0.78,0.08,9.07,-1.04,-2.07,-0.73,-2.45,-0.17,0.61,0.02,-0.79,-0.01,9.13,-0.82,-0.64,1.22,-0.83,0.19
17320,0.57,-0.05,-0.81,0.07,9.07,-1.04,-2.07,-0.73,-2.45,-0.17,0.61,0.02,-0.79,-0.01,9.13,-0.82,-0.64,-0.02,-0.87,0.11
17340,0.57,-0.05,-0.81,0.07,10.33,-2.65,-0.46,-0.73,-2.45,-0.17,0.60,0.01,-0.80,-0.02,9.13,-0.82,-0.64,-0.02,-0.87,0.11
17360,0.52,-0.06,-0.85,0.05,10.33,-2.65,-0.46,-0.73,-2.45,-0.17,0.60,0.01,-0.80,-0.02,10.85,4.62,-1.79,-0.02,-0.87,0.11
17380,0.52,-0.06,-0.85,0.05,10.33,-2.65,-0.46,-2.01,-3.20,-0.11,0.57,0.00,-0.82,-0.02,10.85,4.62,-1.79,-0.02,-0.87,0.11
17400,0.49,-0.07,-0.87,0.04,10.33,-2.65,-0.46,-2.01,-3.20,-0.11,0.57,0.00,-0.82,-0.02,10.85,4.62,-1.79,-0.15,-1.73,0.25
17420,0.49,-0.07,-0.87,0.04,12.36,-2.57,5.05,-2.01,-3.20,-0.11,0.53,-0.00,-0.85,-0.01,10.85,4.62,-1.79,-0.15,-1.73,0.25
17440,0.48,-0.10,-0.87,0.01,12.36,-2.57,5.05,-2.01,-3.20,-0.11,0.53,-0.00,-0.85,-0.01,12.00,2.59,-0.48,-0.15,-1.73,0.25
17460,0.48,-0.10,-0.87,0.01,12.36,-2.57,5.05,-2.34,-0.41,0.50,0.47,-0.02,-0.88,-0.01,12.00,2.59,-0.48,-0.15,-1.73,0.25
17480,0.50,-0.12,-0.86,-0.03,12.36,-2.57,5.05,-2.34,-0.41,0.50,0.47,-0.02,-0.88,-0.01,12.00,2.59,-0.48,-0.41,-3.32,0.71
17500,0.50,-0.12,-0.86,-0.03,15.80,-0.20,6.43,-2.34,-0.41,0.50,0.41,-0.03,-0.91,-0.00,12.00,2.59,-0.48,-0.41,-3.32,0.71
17520,0.53,-0.12,-0.83,-0.06,15.80,-0.20,6.43,-2.34,-0.41,0.50,0.41,-0.03,-0.91,-0.00,20.73,6.30,3.69,-0.41,-3.32,0.71
17540,0.53,-0.12,-0.83,-0.06,15.80,-0.20,6.43,-0.85,1.87,-0.70,0.33,-0.06,-0.94,-0.03,20.73,6.30,3.69,-0.41,-3.32,0.71
17560,0.58,-0.13,-0.80,-0.10,15.80,-0.20,6.43,-0.85,1.87,-0.70,0.33,-0.06,-0.94,-0.03,23.49,6.53,9.13,-0.41,-3.32,0.71
17580,0.58,-0.13,-0.80,-0.10,13.82,-8.78,-5.10,-0.85,1.87,-0.70,0.27,-0.07,-0.96,-0.02,23.49,6.53,9.13,-0.41,-3.32,0.71
17600,0.64,-0.11,-0.76,-0.06,13.82,-8.78,-5.10,-0.85,1.87,-0.70,0.27,-0.07,-0.96,-0.02,20.62,-11.51,-6.15,-0.41,-3.32,0.71
17620,0.64,-0.11,-0.76,-0.06,17.22,-5.75,-7.59,-0.85,1.87,-0.70,0.27,-0.07,-0.96,0.01,20.62,-11.51,-6.15,-0.41,-3.32,0.71
17640,0.69,-0.11,-0.72,-0.04,17.22,-5.75,-7.59,-0.85,1.87,-0.70,0.27,-0.07,-0.96,0.01,7.20,0.44,3.08,-0.41,-3.32,0.71
17660,0.69,-0.11,-0.72,-0.04,19.25,1.45,-7.25,-0.85,1.87,-0.70,0.33,-0.06,-0.94,0.01,7.20,0.44,3.08,-0.41,-3.32,0.71
17680,0.73,-0.12,-0.68,-0.03,19.25,1.45,-7.25,-0.85,1.87,-0.70,0.33,-0.06,-0.94,0.01,3.53,-0.82,-3.32,-0.41,-3.32,0.71
17700,0.73,-0.12,-0.68,-0.03,7.19,-2.42,-8.66,-0.85,1.87,-0.70,0.42,-0.04,-0.91,0.01,3.53,-0.82,-3.32,-0.41,-3.32,0.71
17720,0.75,-0.11,-0.65,0.00,7.19,-2.42,-8.66,-0.85,1.87,-0.70,0.42,-0.04,-0.91,0.01,3.53,-0.82,-3.32,0.64,5.26,-0.79
17740,0.75,-0.11,-0.65,0.00,3.24,-1.31,-7.78,-0.85,1.87,-0.70,0.53,-0.02,-0.85,-0.01,3.53,-0.82,-3.32,0.64,5.26,-0.79
17760,0.76,-0.09,-0.64,0.04,3.24,-1.31,-7.78,-0.85,1.87,-0.70,0.53,-0.02,-0.85,-0.01,5.10,2.66,-4.05,0.64,5.26,-0.79
17780,0.76,-0.09,-0.64,0.04,-0.02,1.26,-7.59,-0.85,1.87,-0.70,0.63,-0.01,-0.78,-0.05,5.10,2.66,-4.05,0.64,5.26,-0.79
17800,0.76,-0.06,-0.64,0.07,-0.02,1.26,-7.59,-0.85,1.87,-0.70,0.63,-0.01,-0.78,-0.05,10.80,1.44,-7.04,0.64,5.26,-0.79
17820,0.76,-0.06,-0.64,0.07,-0.02,1.26,-7.59,1.75,-0.34,0.30,0.72,-0.00,-0.69,-0.09,10.80,1.44,-7.04,0.64,5.26,-0.79
17840,0.77,-0.06,-0.63,0.09,-0.02,1.26,-7.59,1.75,-0.34,0.30,0.72,-0.00,-0.69,-0.09,10.80,1.44,-7.04,-1.29,6.42,-1.12
17860,0.77,-0.06,-0.63,0.09,9.06,0.84,0.95,1.75,-0.34,0.30,0.78,0.01,-0.62,-0.11,10.80,1.44,-7.04,-1.29,6.42,-1.12
17880,0.79,-0.06,-0.61,0.10,9.06,0.84,0.95,1.75,-0.34,0.30,0.78,0.01,-0.62,-0.11,12.41,1.17,-11.67,-1.29,6.42,-1.12
17900,0.79,-0.06,-0.61,0.10,9.06,0.84,0.95,0.04,1.56,0.74,0.80,0.01,-0.60,-0.10,12.41,1.17,-11.67,-1.29,6.42,-1.12
17920,0.78,-0.04,-0.61,0.13,9.06,0.84,0.95,0.04,1.56,0.74,0.80,0.01,-0.60,-0.10,5.41,-4.88,-15.16,-1.29,6.42,-1.12
17940,0.78,-0.04,-0.61,0.13,10.14,-0.35,9.42,0.04,1.56,0.74,0.77,0.04,-0.64,-0.06,5.41,-4.88,-15.16,-1.29,6.42,-1.12
17960,0.77,-0.02,-0.62,0.14,10.14,-0.35,9.42,0.04,1.56,0.74,0.77,0.04,-0.64,-0.06,4.72,2.62,-18.72,-1.29,6.42,-1.12
17980,0.77,-0.02,-0.62,0.14,10.14,-0.35,9.42,0.89,-1.37,-0.00,0.73,0.09,-0.67,-0.01,4.72,2.62,-18.72,-1.29,6.42,-1.12
18000,0.77,-0.02,-0.63,0.12,10.14,-0.35,9.42,0.89,-1.37,-0.00,0.73,0.09,-0.67,-0.01,12.49,11.36,-10.29,-1.29,6.42,-1.12
18020,0.77,-0.02,-0.63,0.12,10.14,-0.35,9.42,-0.15,-0.71,-0.75,0.70,0.08,-0.71,-0.00,12.49,11.36,-10.29,-1.29,6.42,-1.12
18040,0.75,-0.06,-0.65,0.09,10.14,-0.35,9.42,-0.15,-0.71,-0.75,0.70,0.08,-0.71,-0.00,7.52,-2.28,-7.92,-1.29,6.42,-1.12
18060,0.75,-0.06,-0.65,0.09,10.14,-0.35,9.42,-3.05,0.72,0.27,0.67,0.06,-0.74,-0.00,7.52,-2.28,-7.92,-1.29,6.42,-1.12
18080,0.73,-0.07,-0.67,0.10,10.14,-0.35,9.42,-3.05,0.72,0.27,0.67,0.06,-0.74,-0.00,12.65,-4.62,-5.93,-1.29,6.42,-1.12
18143,0.73,-0.07,-0.67,0.10,10.14,-0.35,9.42,0.70,-1.86,0.37,0.65,0.07,-0.75,0.02,12.65,-4.62,-5.93,-1.29,6.42,-1.12
18338,0.66,-0.04,-0.74,0.10,10.14,-0.35,9.42,0.70,-1.86,0.37,0.65,0.07,-0.75,0.02,12.65,-4.62,-5.93,1.61,-0.91,0.30
18578,0.66,-0.04,-0.74,0.10,8.68,-0.93,-1.69,0.70,-1.86,0.37,0.51,-0.01,-0.86,-0.01,12.65,-4.62,-5.93,1.61,-0.91,0.30
18938,0.74,-0.13,-0.66,-0.03,8.68,-0.93,-1.69,0.70,-1.86,0.37,0.51,-0.01,-0.86,-0.01,12.65,-4.62,-5.93,-0.65,-4.06,0.93
19101,0.74,-0.13,-0.66,-0.03,11.02,-0.58,6.20,0.70,-1.86,0.37,0.70,0.07,-0.71,-0.01,12.65,-4.62,-5.93,-0.65,-4.06,0.93
19118,0.63,-0.06,-0.77,0.08,11.02,-0.58,6.20,0.70,-1.86,0.37,0.70,0.07,-0.71,-0.01,12.65,-4.62,-5.93,-0.91,-2.07,0.86
19134,0.63,-0.06,-0.77,0.08,11.02,-0.58,6.20,-0.90,-2.72,-0.09,0.63,0.03,-0.77,-0.02,12.65,-4.62,-5.93,-0.91,-2.07,0.86
19144,0.63,-0.06,-0.77,0.08,8.34,-2.61,-1.73,-0.90,-2.72,-0.09,0.63,0.03,-0.77,-0.02,12.65,-4.62,-5.93,-0.68,-0.72,0.25
19153,0.59,-0.06,-0.81,0.06,8.34,-2.61,-1.73,-0.90,-2.72,-0.09,0.63,0.02,-0.78,-0.02,12.65,-4.62,-5.93,-0.68,-0.72,0.25
19161,0.59,-0.06,-0.81,0.06,9.68,-2.69,-0.70,-0.90,-2.72,-0.09,0.63,0.02,-0.78,-0.02,9.09,0.94,-0.45,-0.68,-0.72,0.25
19169,0.56,-0.07,-0.82,0.06,9.68,-2.69,-0.70,-0.90,-2.72,-0.09,0.63,0.02,-0.78,-0.02,9.09,0.94,-0.45,-0.33,-0.86,0.13
19177,0.56,-0.07,-0.82,0.06,7.87,-0.89,-0.77,-0.90,-2.72,-0.09,0.62,0.02,-0.78,-0.02,9.09,0.94,-0.45,-0.33,-0.86,0.13
19187,0.53,-0.07,-0.84,0.05,7.87,-0.89,-0.77,-0.90,-2.72,-0.09,0.62,0.02,-0.78,-0.02,9.09,0.94,-0.45,-0.42,-1.15,0.23
19195,0.53,-0.07,-0.84,0.05,8.64,-1.69,0.49,-0.90,-2.72,-0.09,0.61,0.01,-0.79,-0.02,9.09,0.94,-0.45,-0.42,-1.15,0.23
19203,0.53,-0.07,-0.84,0.05,8.64,-1.69,0.49,-0.78,-3.06,-0.15,0.61,0.01,-0.79,-0.02,8.97,1.74,0.89,-0.42,-1.15,0.23
19211,0.51,-0.07,-0.86,0.04,8.64,-1.69,0.49,-0.78,-3.06,-0.15,0.60,0.01,-0.80,-0.02,8.97,1.74,0.89,-0.42,-1.15,0.23
19231,0.51,-0.07,-0.86,0.04,12.36,-1.31,1.60,-0.78,-3.06,-0.15,0.60,0.01,-0.80,-0.02,7.94,-0.44,1.85,-0.42,-1.15,0.23
19241,0.49,-0.07,-0.87,0.04,12.36,-1.31,1.60,-0.78,-3.06,-0.15,0.58,0.01,-0.81,-0.02,7.94,-0.44,1.85,-0.42,-1.15,0.23
19248,0.49,-0.07,-0.87,0.04,11.98,-1.00,3.33,-0.78,-3.06,-0.15,0.58,0.01,-0.81,-0.02,7.94,-0.44,1.85,0.23,-1.79,0.38
19257,0.49,-0.07,-0.87,0.04,12.55,-1.54,2.83,-0.78,-3.06,-0.15,0.56,0.01,-0.83,-0.01,7.94,-0.44,1.85,0.23,-1.79,0.38
19268,0.47,-0.09,-0.88,0.02,12.55,-1.54,2.83,-0.78,-3.06,-0.15,0.56,0.01,-0.83,-0.01,7.94,-0.44,1.85,0.17,-2.59,0.58
19276,0.47,-0.09,-0.88,0.02,12.55,-1.54,2.83,-1.44,-0.94,0.22,0.54,0.00,-0.84,-0.01,7.94,-0.44,1.85,0.17,-2.59,0.58
19284,0.47,-0.09,-0.88,0.02,12.55,-1.54,2.83,-1.93,-0.42,0.41,0.54,0.00,-0.84,-0.01,13.22,3.31,-0.41,0.17,-2.59,0.58
19293,0.47,-0.10,-0.88,0.01,12.55,-1.54,2.83,-1.93,-0.42,0.41,0.51,-0.01,-0.86,-0.01,13.22,3.31,-0.41,0.17,-2.59,0.58
19300,0.47,-0.10,-0.88,0.01,12.55,-1.54,2.83,-2.08,0.63,0.49,0.51,-0.01,-0.86,-0.01,14.95,3.01,-1.10,0.17,-2.59,0.58
19311,0.47,-0.11,-0.87,-0.01,12.55,-1.54,2.83,-2.08,0.63,0.49,0.51,-0.01,-0.86,-0.01,14.95,3.01,-1.10,-0.14,-3.38,0.80
19319,0.47,-0.11,-0.87,-0.01,17.76,-2.54,5.01,-2.08,0.63,0.49,0.49,-0.01,-0.87,-0.00,14.95,3.01,-1.10,-0.14,-3.38,0.80
19327,0.49,-0.12,-0.86,-0.03,17.76,-2.54,5.01,-2.08,0.63,0.49,0.49,-0.01,-0.87,-0.00,14.95,3.01,-1.10,-0.17,-3.67,0.91
19335,0.49,-0.12,-0.86,-0.03,17.76,-2.54,5.01,-1.95,1.99,0.29,0.45,-0.02,-0.89,0.00,14.95,3.01,-1.10,-0.17,-3.67,0.91
19345,0.49,-0.12,-0.86,-0.03,17.76,-2.54,5.01,-1.46,2.98,0.17,0.45,-0.02,-0.89,0.00,19.12,5.08,2.96,-0.17,-3.67,0.91
19353,0.52,-0.13,-0.85,-0.04,17.76,-2.54,5.01,-1.46,2.98,0.17,0.42,-0.03,-0.91,0.00,19.12,5.08,2.96,-0.17,-3.67,0.91
19363,0.52,-0.13,-0.85,-0.04,17.87,-1.42,13.21,-1.46,2.98,0.17,0.42,-0.03,-0.91,0.00,23.52,13.43,10.89,-0.17,-3.67,0.91
19371,0.54,-0.12,-0.83,-0.05,17.87,-1.42,13.21,-1.46,2.98,0.17,0.38,-0.05,-0.92,-0.00,23.52,13.43,10.89,-0.17,-3.67,0.91
19381,0.54,-0.12,-0.83,-0.05,17.87,-1.42,13.21,-0.99,2.95,-0.96,0.38,-0.05,-0.92,-0.00,23.52,13.43,10.89,-0.86,-4.04,0.99
19390,0.56,-0.12,-0.82,-0.07,17.87,-1.42,13.21,-0.99,2.95,-0.96,0.34,-0.07,-0.94,-0.02,23.52,13.43,10.89,-0.86,-4.04,0.99
19398,0.56,-0.12,-0.82,-0.07,14.58,-4.22,-4.83,-0.99,2.95,-0.96,0.34,-0.07,-0.94,-0.02,23.52,13.43,10.89,-2.69,-4.26,1.06
19406,0.58,-0.13,-0.80,-0.09,14.58,-4.22,-4.83,-0.99,2.95,-0.96,0.34,-0.07,-0.94,-0.02,23.52,13.43,10.89,-2.87,-4.58,0.79
19416,0.58,-0.13,-0.80,-0.09,14.58,-4.22,-4.83,-1.72,3.17,-0.11,0.29,-0.08,-0.95,-0.04,23.52,13.43,10.89,-2.87,-4.58,0.79
19424,0.58,-0.13,-0.80,-0.09,14.58,-4.22,-4.83,-1.58,2.78,0.59,0.29,-0.08,-0.95,-0.04,19.05,-10.71,-8.72,-2.87,-4.58,0.79
19433,0.60,-0.14,-0.78,-0.09,14.58,-4.22,-4.83,-1.58,2.78,0.59,0.27,-0.08,-0.96,-0.03,19.05,-10.71,-8.72,-2.87,-4.58,0.79
19441,0.60,-0.14,-0.78,-0.09,14.58,-4.22,-4.83,1.17,3.40,1.07,0.27,-0.08,-0.96,-0.03,11.31,-5.34,-11.29,-2.87,-4.58,0.79
19449,0.63,-0.13,-0.76,-0.08,14.58,-4.22,-4.83,1.17,3.40,1.07,0.26,-0.09,-0.96,-0.01,11.31,-5.34,-11.29,-2.87,-4.58,0.79
19459,0.63,-0.13,-0.76,-0.08,14.58,-4.22,-4.83,2.27,4.00,1.30,0.26,-0.09,-0.96,-0.01,11.31,-5.34,-11.29,1.65,-1.66,0.39
19467,0.67,-0.13,-0.73,-0.06,14.58,-4.22,-4.83,2.27,4.00,1.30,0.26,-0.09,-0.96,-0.01,11.31,-5.34,-11.29,0.96,-0.45,0.47
19476,0.67,-0.13,-0.73,-0.06,20.05,-1.31,-9.35,2.27,4.00,1.30,0.26,-0.09,-0.96,-0.00,11.31,-5.34,-11.29,0.96,-0.45,0.47
19484,0.67,-0.13,-0.73,-0.06,20.05,-1.31,-9.35,1.10,4.52,1.17,0.26,-0.09,-0.96,-0.00,11.31,-5.34,-11.29,1.38,1.36,0.14
19494,0.70,-0.13,-0.70,-0.05,20.05,-1.31,-9.35,1.10,4.52,1.17,0.27,-0.08,-0.96,0.01,11.31,-5.34,-11.29,1.38,1.36,0.14
19502,0.70,-0.13,-0.70,-0.05,14.46,1.91,-7.55,1.10,4.52,1.17,0.27,-0.08,-0.96,0.01,2.57,-0.90,-2.40,1.38,1.36,0.14
19510,0.73,-0.13,-0.67,-0.05,14.46,1.91,-7.55,1.10,4.52,1.17,0.30,-0.08,-0.95,0.02,2.57,-0.90,-2.40,1.38,1.36,0.14
19518,0.73,-0.13,-0.67,-0.05,14.46,1.91,-7.55,0.42,3.67,1.18,0.30,-0.08,-0.95,0.02,1.65,-0.90,-2.44,1.38,1.36,0.14
19529,0.75,-0.13,-0.65,-0.04,14.46,1.91,-7.55,0.42,3.67,1.18,0.30,-0.08,-0.95,0.02,1.65,-0.90,-2.44,1.21,3.47,-0.23
19537,0.75,-0.13,-0.65,-0.04,7.88,0.49,-8.32,0.42,3.67,1.18,0.34,-0.08,-0.94,0.03,1.65,-0.90,-2.44,1.21,3.47,-0.23
19546,0.77,-0.13,-0.63,-0.03,7.88,0.49,-8.32,0.42,3.67,1.18,0.34,-0.08,-0.94,0.03,0.12,0.25,-2.32,1.21,3.47,-0.23
19554,0.77,-0.13,-0.63,-0.03,2.63,-0.31,-7.70,0.42,3.67,1.18,0.38,-0.07,-0.92,0.03,0.12,0.25,-2.32,1.21,3.47,-0.23
19562,0.77,-0.13,-0.63,-0.03,2.63,-0.31,-7.70,1.33,2.43,1.30,0.38,-0.07,-0.92,0.03,0.62,1.25,-2.48,1.21,3.47,-0.23
19572,0.78,-0.13,-0.61,-0.01,2.63,-0.31,-7.70,1.33,2.43,1.30,0.42,-0.06,-0.90,0.02,0.62,1.25,-2.48,1.21,3.47,-0.23
19580,0.78,-0.13,-0.61,-0.01,1.82,-0.35,-7.36,1.33,2.43,1.30,0.42,-0.06,-0.90,0.02,1.73,2.51,-2.56,1.21,3.47,-0.23
19588,0.79,-0.12,-0.59,0.00,1.82,-0.35,-7.36,1.33,2.43,1.30,0.42,-0.06,-0.90,0.02,1.73,2.51,-2.56,-0.25,5.44,-1.21
19596,0.79,-0.12,-0.59,0.00,1.82,-0.35,-7.36,1.73,1.68,0.84,0.47,-0.05,-0.88,0.01,1.73,2.51,-2.56,-0.25,5.44,-1.21
19607,0.79,-0.12,-0.59,0.00,1.82,-0.35,-7.36,1.98,1.08,0.52,0.47,-0.05,-0.88,0.01,3.03,2.74,-3.77,-0.25,5.44,-1.21
19616,0.80,-0.11,-0.59,0.02,1.82,-0.35,-7.36,1.98,1.08,0.52,0.52,-0.04,-0.85,-0.01,3.03,2.74,-3.77,-0.25,5.44,-1.21
19624,0.80,-0.11,-0.59,0.02,-0.89,0.53,-8.89,1.98,1.08,0.52,0.52,-0.04,-0.85,-0.01,4.22,2.12,-5.12,-0.25,5.44,-1.21
19633,0.81,-0.09,-0.59,0.03,-0.89,0.53,-8.89,1.98,1.08,0.52,0.57,-0.04,-0.82,-0.03,4.22,2.12,-5.12,-0.25,5.44,-1.21
19643,0.81,-0.09,-0.59,0.03,-1.09,1.45,-9.58,1.98,1.08,0.52,0.57,-0.04,-0.82,-0.03,8.16,1.78,-7.07,-0.25,5.44,-1.21
19651,0.80,-0.07,-0.59,0.04,-1.09,1.45,-9.58,1.98,1.08,0.52,0.63,-0.03,-0.78,-0.06,8.16,1.78,-7.07,-0.25,5.44,-1.21
19659,0.80,-0.07,-0.59,0.04,-1.62,2.25,-10.04,1.98,1.08,0.52,0.63,-0.03,-0.78,-0.06,8.16,1.78,-7.07,-1.74,6.68,-1.73
19668,0.80,-0.06,-0.60,0.05,-1.62,2.25,-10.04,1.98,1.08,0.52,0.63,-0.03,-0.78,-0.06,8.16,1.78,-7.07,-2.55,6.91,-1.64
19676,0.80,-0.06,-0.60,0.05,-1.62,2.25,-10.04,1.11,-1.26,0.14,0.68,-0.03,-0.73,-0.09,8.16,1.78,-7.07,-2.55,6.91,-1.64
19686,0.80,-0.06,-0.60,0.05,2.05,0.84,-5.02,1.11,-1.26,0.14,0.68,-0.03,-0.73,-0.09,14.83,0.21,-10.45,-2.55,6.91,-1.64
19694,0.79,-0.06,-0.61,0.06,2.05,0.84,-5.02,1.11,-1.26,0.14,0.72,-0.03,-0.68,-0.12,14.83,0.21,-10.45,-2.55,6.91,-1.64
19702,0.79,-0.06,-0.61,0.06,6.43,-0.12,-0.20,1.11,-1.26,0.14,0.72,-0.03,-0.68,-0.12,18.39,-1.66,-11.98,-2.55,6.91,-1.64
19710,0.79,-0.05,-0.61,0.07,6.43,-0.12,-0.20,1.11,-1.26,0.14,0.76,-0.02,-0.64,-0.13,18.39,-1.66,-11.98,-2.55,6.91,-1.64
19720,0.79,-0.05,-0.61,0.07,14.74,-1.39,5.89,1.11,-1.26,0.14,0.76,-0.02,-0.64,-0.13,18.16,-0.32,-13.93,-2.55,6.91,-1.64
19728,0.80,-0.06,-0.60,0.07,14.74,-1.39,5.89,1.11,-1.26,0.14,0.76,-0.02,-0.64,-0.13,18.16,-0.32,-13.93,0.00,4.48,-0.63
19736,0.80,-0.06,-0.60,0.07,18.48,-0.66,5.93,1.11,-1.26,0.14,0.78,-0.01,-0.61,-0.14,18.16,-0.32,-13.93,0.00,4.48,-0.63
19745,0.80,-0.07,-0.60,0.07,18.48,-0.66,5.93,1.11,-1.26,0.14,0.78,-0.01,-0.61,-0.14,9.01,-4.73,-19.57,0.00,4.48,-0.63
19755,0.80,-0.07,-0.60,0.07,17.03,0.88,18.15,1.11,-1.26,0.14,0.79,-0.00,-0.60,-0.13,9.01,-4.73,-19.57,0.00,4.48,-0.63
19763,0.80,-0.07,-0.60,0.07,8.49,0.61,17.54,1.11,-1.26,0.14,0.79,-0.00,-0.60,-0.13,5.48,-3.35,-16.38,0.00,4.48,-0.63
19771,0.79,-0.06,-0.60,0.08,8.49,0.61,17.54,1.11,-1.26,0.14,0.79,0.00,-0.60,-0.12,5.48,-3.35,-16.38,0.00,4.48,-0.63
19779,0.79,-0.06,-0.60,0.08,13.28,2.75,14.59,1.11,-1.26,0.14,0.79,0.00,-0.60,-0.12,5.48,-3.35,-16.38,1.05,0.10,0.23
19788,0.79,-0.05,-0.60,0.09,13.28,2.75,14.59,1.11,-1.26,0.14,0.79,0.00,-0.60,-0.12,5.48,-3.35,-16.38,1.22,-2.46,0.75
19798,0.79,-0.05,-0.60,0.09,11.90,2.33,10.07,1.11,-1.26,0.14,0.77,0.00,-0.62,-0.11,5.48,-3.35,-16.38,1.22,-2.46,0.75
19805,0.79,-0.05,-0.61,0.09,11.90,2.33,10.07,1.11,-1.26,0.14,0.77,0.00,-0.62,-0.11,23.11,25.37,14.30,1.22,-2.46,0.75
19813,0.79,-0.05,-0.61,0.09,11.90,2.33,10.07,0.31,0.43,-0.01,0.76,0.02,-0.64,-0.10,23.11,25.37,14.30,1.22,-2.46,0.75
19821,0.79,-0.05,-0.61,0.09,11.90,2.33,10.07,-2.09,-2.76,0.06,0.76,0.02,-0.64,-0.10,12.07,8.22,-0.71,1.22,-2.46,0.75
19834,0.77,-0.07,-0.62,0.07,11.90,2.33,10.07,-2.09,-2.76,0.06,0.75,0.04,-0.66,-0.08,12.07,8.22,-0.71,1.22,-2.46,0.75
19841,0.77,-0.07,-0.62,0.07,25.84,-1.73,2.29,-2.09,-2.76,0.06,0.75,0.04,-0.66,-0.08,12.07,8.22,-0.71,3.09,-1.87,-0.05
19850,0.78,-0.06,-0.62,0.08,25.84,-1.73,2.29,-2.09,-2.76,0.06,0.73,0.05,-0.68,-0.06,12.07,8.22,-0.71,3.09,-1.87,-0.05
19860,0.78,-0.06,-0.62,0.08,6.61,3.90,-3.41,-2.09,-2.76,0.06,0.73,0.05,-0.68,-0.06,12.07,8.22,-0.71,2.70,-2.42,0.84
19880,0.76,-0.05,-0.65,0.08,6.61,3.90,-3.41,-2.09,-2.76,0.06,0.73,0.05,-0.68,-0.06,12.07,8.22,-0.71,1.84,-2.13,0.91
19900,0.76,-0.05,-0.65,0.08,6.80,1.72,-11.11,-2.09,-2.76,0.06,0.72,0.05,-0.69,-0.04,12.07,8.22,-0.71,1.84,-2.13,0.91
19920,0.75,-0.08,-0.66,0.06,6.80,1.72,-11.11,-2.09,-2.76,0.06,0.72,0.05,-0.69,-0.04,6.71,-0.06,-6.12,1.84,-2.13,0.91
19940,0.75,-0.08,-0.66,0.06,6.80,1.72,-11.11,-1.99,0.25,0.13,0.69,0.04,-0.72,-0.04,6.71,-0.06,-6.12,1.84,-2.13,0.91
19960,0.72,-0.07,-0.68,0.07,6.80,1.72,-11.11,-1.99,0.25,0.13,0.69,0.04,-0.72,-0.04,6.71,-0.06,-6.12,-0.18,-1.68,0.62
19980,0.72,-0.07,-0.68,0.07,11.48,-3.07,-3.45,-1.99,0.25,0.13,0.67,0.04,-0.74,-0.03,6.71,-0.06,-6.12,-0.18,-1.68,0.62
20000,0.69,-0.06,-0.71,0.07,11.48,-3.07,-3.45,-1.99,0.25,0.13,0.67,0.04,-0.74,-0.03,8.47,1.90,-2.52,-0.18,-1.68,0.62
20020,0.69,-0.06,-0.71,0.07,11.48,-3.07,-3.45,-0.01,-2.14,-0.46,0.66,0.03,-0.75,-0.02,8.47,1.90,-2.52,-0.18,-1.68,0.62
20040,0.66,-0.07,-0.74,0.06,11.48,-3.07,-3.45,-0.01,-2.14,-0.46,0.66,0.03,-0.75,-0.02,9.74,0.06,-0.87,-0.18,-1.68,0.62
20060,0.66,-0.07,-0.74,0.06,8.84,-1.50,-1.38,-0.01,-2.14,-0.46,0.64,0.01,-0.76,-0.03,9.74,0.06,-0.87,-0.18,-1.68,0.62
20080,0.63,-0.08,-0.77,0.05,8.84,-1.50,-1.38,-0.01,-2.14,-0.46,0.64,0.01,-0.76,-0.03,9.74,-1.66,-0.60,-0.18,-1.68,0.62
20100,0.63,-0.08,-0.77,0.05,7.41,-4.14,-1.50,-0.01,-2.14,-0.46,0.63,0.01,-0.77,-0.03,9.74,-1.66,-0.60,-0.18,-1.68,0.62
20120,0.58,-0.09,-0.81,0.04,7.41,-4.14,-1.50,-0.01,-2.14,-0.46,0.63,0.01,-0.77,-0.03,9.32,1.40,-1.86,-0.18,-1.68,0.62
20140,0.58,-0.09,-0.81,0.04,7.41,-4.14,-1.50,-0.62,-2.60,0.00,0.62,0.00,-0.79,-0.03,9.32,1.40,-1.86,-0.18,-1.68,0.62
20160,0.54,-0.09,-0.84,0.03,7.41,-4.14,-1.50,-0.62,-2.60,0.00,0.62,0.00,-0.79,-0.03,9.32,1.40,-1.86,-0.93,-1.20,0.26
20180,0.54,-0.09,-0.84,0.03,7.41,-4.14,-1.50,-0.97,-2.78,-0.22,0.60,-0.01,-0.80,-0.04,9.32,1.40,-1.86,-0.93,-1.20,0.26
20200,0.50,-0.10,-0.86,0.02,7.41,-4.14,-1.50,-0.97,-2.78,-0.22,0.60,-0.01,-0.80,-0.04,8.71,0.10,0.97,-0.93,-1.20,0.26
20220,0.50,-0.10,-0.86,0.02,11.56,-2.00,3.94,-0.97,-2.78,-0.22,0.56,-0.02,-0.82,-0.03,8.71,0.10,0.97,-0.93,-1.20,0.26
20240,0.48,-0.12,-0.87,-0.01,11.56,-2.00,3.94,-0.97,-2.78,-0.22,0.56,-0.02,-0.82,-0.03,8.71,0.10,0.97,-0.13,-2.47,0.57
20260,0.48,-0.12,-0.87,-0.01,11.56,-2.00,3.94,-1.76,-0.65,0.21,0.52,-0.04,-0.85,-0.03,8.71,0.10,0.97,-0.13,-2.47,0.57
20280,0.51,-0.15,-0.85,-0.05,11.56,-2.00,3.94,-1.76,-0.65,0.21,0.52,-0.04,-0.85,-0.03,14.14,2.62,0.43,-0.13,-2.47,0.57
20300,0.51,-0.15,-0.85,-0.05,18.91,-1.92,8.57,-1.76,-0.65,0.21,0.45,-0.06,-0.89,-0.02,14.14,2.62,0.43,-0.13,-2.47,0.57
20320,0.55,-0.15,-0.82,-0.08,18.91,-1.92,8.57,-1.76,-0.65,0.21,0.45,-0.06,-0.89,-0.02,22.00,5.61,3.35,-0.13,-2.47,0.57
20340,0.55,-0.15,-0.82,-0.08,18.91,-1.92,8.57,-0.92,2.05,-0.67,0.37,-0.08,-0.92,-0.02,22.00,5.61,3.35,-0.13,-2.47,0.57
20360,0.59,-0.15,-0.79,-0.10,18.91,-1.92,8.57,-0.92,2.05,-0.67,0.37,-0.08,-0.92,-0.02,22.00,5.61,3.35,-2.16,-4.28,1.14
20380,0.59,-0.15,-0.79,-0.10,18.91,-1.92,8.57,-0.83,2.86,-0.02,0.29,-0.12,-0.95,-0.04,22.00,5.61,3.35,-2.16,-4.28,1.14
20400,0.64,-0.16,-0.75,-0.10,18.91,-1.92,8.57,-0.83,2.86,-0.02,0.29,-0.12,-0.95,-0.04,17.02,-13.70,-16.80,-2.16,-4.28,1.14
20420,0.64,-0.16,-0.75,-0.10,18.91,-1.92,8.57,0.40,3.16,1.21,0.26,-0.14,-0.96,-0.04,17.02,-13.70,-16.80,-2.16,-4.28,1.14
20440,0.69,-0.16,-0.70,-0.09,18.91,-1.92,8.57,0.40,3.16,1.21,0.26,-0.14,-0.96,-0.04,8.55,4.81,2.31,-2.16,-4.28,1.14
20460,0.69,-0.16,-0.70,-0.09,15.39,1.37,-6.67,0.40,3.16,1.21,0.27,-0.15,-0.95,-0.02,8.55,4.81,2.31,-2.16,-4.28,1.14
20480,0.74,-0.18,-0.65,-0.08,15.39,1.37,-6.67,0.40,3.16,1.21,0.27,-0.15,-0.95,-0.02,3.00,-3.20,-4.43,-2.16,-4.28,1.14
20500,0.74,-0.18,-0.65,-0.08,15.39,1.37,-6.67,0.01,3.05,1.29,0.34,-0.15,-0.93,0.00,3.00,-3.20,-4.43,-2.16,-4.28,1.14
20520,0.77,-0.18,-0.61,-0.06,15.39,1.37,-6.67,0.01,3.05,1.29,0.34,-0.15,-0.93,0.00,2.00,1.32,-2.02,-2.16,-4.28,1.14
20540,0.77,-0.18,-0.61,-0.06,4.66,0.57,-6.14,0.01,3.05,1.29,0.43,-0.13,-0.89,0.02,2.00,1.32,-2.02,-2.16,-4.28,1.14
20560,0.80,-0.16,-0.58,-0.04,4.66,0.57,-6.14,0.01,3.05,1.29,0.43,-0.13,-0.89,0.02,2.00,1.32,-2.02,-0.42,5.07,-0.89
20580,0.80,-0.16,-0.58,-0.04,4.66,0.57,-6.14,1.46,1.41,0.68,0.52,-0.13,-0.85,-0.02,2.00,1.32,-2.02,-0.42,5.07,-0.89
20600,0.81,-0.14,-0.58,-0.01,4.66,0.57,-6.14,1.46,1.41,0.68,0.52,-0.13,-0.85,-0.02,6.02,1.74,-4.36,-0.42,5.07,-0.89
20620,0.81,-0.14,-0.58,-0.01,-1.32,0.34,-8.55,1.46,1.41,0.68,0.61,-0.11,-0.78,-0.07,6.02,1.74,-4.36,-0.42,5.07,-0.89
20640,0.80,-0.11,-0.59,0.01,-1.32,0.34,-8.55,1.46,1.41,0.68,0.61,-0.11,-0.78,-0.07,6.02,1.74,-4.36,-1.02,6.80,-1.67
20660,0.80,-0.11,-0.59,0.01,-1.32,0.34,-8.55,1.47,-0.89,-0.01,0.71,-0.09,-0.69,-0.13,6.02,1.74,-4.36,-1.02,6.80,-1.67
20680,0.80,-0.10,-0.59,0.02,-1.32,0.34,-8.55,1.47,-0.89,-0.01,0.71,-0.09,-0.69,-0.13,16.36,1.32,-11.86,-1.02,6.80,-1.67
20700,0.80,-0.10,-0.59,0.02,10.33,0.11,4.63,1.47,-0.89,-0.01,0.76,-0.10,-0.61,-0.18,16.36,1.32,-11.86,-1.02,6.80,-1.67
20720,0.80,-0.12,-0.58,0.03,10.33,0.11,4.63,1.47,-0.89,-0.01,0.76,-0.10,-0.61,-0.18,9.96,-6.95,-17.34,-1.02,6.80,-1.67
20740,0.80,-0.12,-0.58,0.03,10.33,0.11,4.63,-1.06,0.14,0.64,0.78,-0.09,-0.59,-0.18,9.96,-6.95,-17.34,-1.02,6.80,-1.67
20760,0.80,-0.12,-0.59,0.03,10.33,0.11,4.63,-1.06,0.14,0.64,0.78,-0.09,-0.59,-0.18,1.04,-2.12,-16.38,-1.02,6.80,-1.67
20780,0.80,-0.12,-0.59,0.03,10.33,0.11,4.63,0.05,0.29,-0.14,0.76,-0.10,-0.62,-0.16,1.04,-2.12,-16.38,-1.02,6.80,-1.67
20800,0.77,-0.14,-0.62,0.03,10.33,0.11,4.63,0.05,0.29,-0.14,0.76,-0.10,-0.62,-0.16,14.87,7.41,5.07,-1.02,6.80,-1.67
20820,0.77,-0.14,-0.62,0.03,10.33,0.11,4.63,-1.87,-2.49,0.44,0.74,-0.06,-0.65,-0.13,14.87,7.41,5.07,-1.02,6.80,-1.67
20840,0.76,-0.13,-0.64,0.04,10.33,0.11,4.63,-1.87,-2.49,0.44,0.74,-0.06,-0.65,-0.13,24.75,-4.12,-7.88,-1.02,6.80,-1.67
20860,0.76,-0.13,-0.64,0.04,10.33,0.11,4.63,0.85,-3.75,-0.32,0.72,-0.03,-0.69,-0.08,24.75,-4.12,-7.88,-1.02,6.80,-1.67
20880,0.75,-0.13,-0.65,0.02,10.33,0.11,4.63,0.85,-3.75,-0.32,0.72,-0.03,-0.69,-0.08,4.76,1.17,-5.74,-1.02,6.80,-1.67
20900,0.75,-0.13,-0.65,0.02,-0.13,-7.82,-3.45,0.85,-3.75,-0.32,0.70,-0.05,-0.71,-0.08,4.76,1.17,-5.74,-1.02,6.80,-1.67
20920,0.72,-0.15,-0.67,0.03,-0.13,-7.82,-3.45,0.85,-3.75,-0.32,0.70,-0.05,-0.71,-0.08,11.31,-1.55,-6.65,-1.02,6.80,-1.67
20940,0.72,-0.15,-0.67,0.03,-0.13,-7.82,-3.45,-0.52,-1.36,0.86,0.68,-0.06,-0.73,-0.07,11.31,-1.55,-6.65,-1.02,6.80,-1.67
20960,0.70,-0.15,-0.70,0.03,-0.13,-7.82,-3.45,-0.52,-1.36,0.86,0.68,-0.06,-0.73,-0.07,8.36,0.94,-1.86,-1.02,6.80,-1.67
20980,0.70,-0.15,-0.70,0.03,8.68,2.21,-1.69,-0.52,-1.36,0.86,0.67,-0.07,-0.74,-0.07,8.36,0.94,-1.86,-1.02,6.80,-1.67
21000,0.66,-0.16,-0.73,0.02,8.68,2.21,-1.69,-0.52,-1.36,0.86,0.67,-0.07,-0.74,-0.07,8.36,0.94,-1.86,-0.82,-0.79,0.41
21020,0.66,-0.16,-0.73,0.02,8.68,2.21,-1.69,-0.93,-2.08,0.20,0.65,-0.09,-0.75,-0.07,8.36,0.94,-1.86,-0.82,-0.79,0.41
21040,0.63,-0.17,-0.76,0.02,8.68,2.21,-1.69,-0.93,-2.08,0.20,0.65,-0.09,-0.75,-0.07,8.89,-1.44,0.17,-0.82,-0.79,0.41
21060,0.63,-0.17,-0.76,0.02,8.68,2.21,-1.69,-0.37,-2.31,-0.04,0.64,-0.09,-0.76,-0.07,8.89,-1.44,0.17,-0.82,-0.79,0.41
21080,0.59,-0.18,-0.79,0.02,8.68,2.21,-1.69,-0.37,-2.31,-0.04,0.64,-0.09,-0.76,-0.07,8.89,-1.44,0.17,0.45,-0.78,0.23
21100,0.59,-0.18,-0.79,0.02,10.09,1.07,0.03,-0.37,-2.31,-0.04,0.63,-0.10,-0.77,-0.07,8.89,-1.44,0.17,0.45,-0.78,0.23
21120,0.55,-0.19,-0.81,0.01,10.09,1.07,0.03,-0.37,-2.31,-0.04,0.63,-0.10,-0.77,-0.07,8.97,0.59,-0.56,0.45,-0.78,0.23
21140,0.55,-0.19,-0.81,0.01,10.09,1.07,0.03,-1.56,-2.60,0.09,0.61,-0.12,-0.78,-0.07,8.97,0.59,-0.56,0.45,-0.78,0.23
21160,0.51,-0.21,-0.83,-0.01,10.09,1.07,0.03,-1.56,-2.60,0.09,0.61,-0.12,-0.78,-0.07,8.75,-0.86,1.58,0.45,-0.78,0.23
21180,0.51,-0.21,-0.83,-0.01,9.98,-0.96,1.64,-1.56,-2.60,0.09,0.57,-0.13,-0.81,-0.05,8.75,-0.86,1.58,0.45,-0.78,0.23
21200,0.49,-0.24,-0.83,-0.03,9.98,-0.96,1.64,-1.56,-2.60,0.09,0.57,-0.13,-0.81,-0.05,10.34,-0.17,-0.18,0.45,-0.78,0.23
21220,0.49,-0.24,-0.83,-0.03,9.98,-0.96,1.64,-2.06,-0.37,0.78,0.53,-0.15,-0.83,-0.04,10.34,-0.17,-0.18,0.45,-0.78,0.23
21240,0.51,-0.27,-0.81,-0.07,9.98,-0.96,1.64,-2.06,-0.37,0.78,0.53,-0.15,-0.83,-0.04,15.06,2.82,-1.59,0.45,-0.78,0.23
21260,0.51,-0.27,-0.81,-0.07,9.98,-0.96,1.64,-2.46,2.07,0.33,0.47,-0.18,-0.86,-0.03,15.06,2.82,-1.59,0.45,-0.78,0.23
21280,0.54,-0.28,-0.79,-0.12,9.98,-0.96,1.64,-2.46,2.07,0.33,0.47,-0.18,-0.86,-0.03,18.51,4.77,2.31,0.45,-0.78,0.23
21300,0.54,-0.28,-0.79,-0.12,9.98,-0.96,1.64,-1.72,1.99,-0.33,0.40,-0.22,-0.89,-0.02,18.51,4.77,2.31,0.45,-0.78,0.23
21320,0.57,-0.28,-0.75,-0.17,9.98,-0.96,1.64,-1.72,1.99,-0.33,0.40,-0.22,-0.89,-0.02,22.95,10.13,5.84,0.45,-0.78,0.23
21340,0.57,-0.28,-0.75,-0.17,9.98,-0.96,1.64,-2.10,3.03,-0.34,0.31,-0.29,-0.91,-0.04,22.95,10.13,5.84,0.45,-0.78,0.23
21360,0.61,-0.31,-0.70,-0.20,9.98,-0.96,1.64,-2.10,3.03,-0.34,0.31,-0.29,-0.91,-0.04,19.43,-8.41,-11.63,0.45,-0.78,0.23
21380,0.61,-0.31,-0.70,-0.20,9.98,-0.96,1.64,-1.66,2.93,1.26,0.26,-0.32,-0.91,-0.05,19.43,-8.41,-11.63,0.45,-0.78,0.23
21400,0.67,-0.31,-0.64,-0.21,9.98,-0.96,1.64,-1.66,2.93,1.26,0.26,-0.32,-0.91,-0.05,5.53,-4.27,-4.01,0.45,-0.78,0.23
21420,0.67,-0.31,-0.64,-0.21,14.54,3.10,-6.29,-1.66,2.93,1.26,0.28,-0.34,-0.90,-0.04,5.53,-4.27,-4.01,0.45,-0.78,0.23
21440,0.71,-0.31,-0.59,-0.22,14.54,3.10,-6.29,-1.66,2.93,1.26,0.28,-0.34,-0.90,-0.04,5.53,-4.27,-4.01,1.74,2.53,1.04
21460,0.71,-0.31,-0.59,-0.22,14.54,3.10,-6.29,-0.61,2.93,0.87,0.35,-0.34,-0.87,-0.03,5.53,-4.27,-4.01,1.74,2.53,1.04
21480,0.74,-0.31,-0.56,-0.21,14.54,3.10,-6.29,-0.61,2.93,0.87,0.35,-0.34,-0.87,-0.03,0.58,0.71,-1.82,1.74,2.53,1.04
21500,0.74,-0.31,-0.56,-0.21,5.08,-2.07,-4.60,-0.61,2.93,0.87,0.43,-0.33,-0.84,-0.05,0.58,0.71,-1.82,1.74,2.53,1.04
21520,0.76,-0.29,-0.54,-0.20,5.08,-2.07,-4.60,-0.61,2.93,0.87,0.43,-0.33,-0.84,-0.05,0.58,0.71,-1.82,0.47,5.27,-0.65
21540,0.76,-0.29,-0.54,-0.20,5.08,-2.07,-4.60,1.20,1.27,0.50,0.52,-0.31,-0.79,-0.10,0.58,0.71,-1.82,0.47,5.27,-0.65
21560,0.78,-0.27,-0.53,-0.18,5.08,-2.07,-4.60,1.20,1.27,0.50,0.52,-0.31,-0.79,-0.10,7.48,5.54,-5.00,0.47,5.27,-0.65
21580,0.78,-0.27,-0.53,-0.18,0.83,1.14,-7.05,1.20,1.27,0.50,0.59,-0.29,-0.73,-0.18,7.48,5.54,-5.00,0.47,5.27,-0.65
21600,0.78,-0.26,-0.54,-0.17,0.83,1.14,-7.05,1.20,1.27,0.50,0.59,-0.29,-0.73,-0.18,12.38,2.66,-7.11,0.47,5.27,-0.65
21620,0.78,-0.26,-0.54,-0.17,0.83,1.14,-7.05,1.01,-0.19,0.30,0.65,-0.28,-0.65,-0.28,12.38,2.66,-7.11,0.47,5.27,-0.65
21640,0.79,-0.26,-0.53,-0.16,0.83,1.14,-7.05,1.01,-0.19,0.30,0.65,-0.28,-0.65,-0.28,17.40,1.40,-11.79,0.47,5.27,-0.65
21660,0.79,-0.26,-0.53,-0.16,10.56,0.53,2.87,1.01,-0.19,0.30,0.69,-0.28,-0.57,-0.35,17.40,1.40,-11.79,0.47,5.27,-0.65
21680,0.79,-0.28,-0.53,-0.17,10.56,0.53,2.87,1.01,-0.19,0.30,0.69,-0.28,-0.57,-0.35,10.12,-3.50,-16.46,0.47,5.27,-0.65
21700,0.79,-0.28,-0.53,-0.17,10.56,0.53,2.87,-1.02,-0.11,0.20,0.71,-0.26,-0.55,-0.36,10.12,-3.50,-16.46,0.47,5.27,-0.65
21720,0.78,-0.27,-0.54,-0.16,10.56,0.53,2.87,-1.02,-0.11,0.20,0.71,-0.26,-0.55,-0.36,3.26,-2.74,-16.88,0.47,5.27,-0.65
21740,0.78,-0.27,-0.54,-0.16,10.56,0.53,2.87,0.58,-0.64,-0.26,0.70,-0.25,-0.58,-0.33,3.26,-2.74,-16.88,0.47,5.27,-0.65
21760,0.77,-0.28,-0.55,-0.16,10.56,0.53,2.87,0.58,-0.64,-0.26,0.70,-0.25,-0.58,-0.33,24.07,14.77,14.57,0.47,5.27,-0.65
21780,0.77,-0.28,-0.55,-0.16,10.56,0.53,2.87,-1.05,-2.45,0.16,0.68,-0.25,-0.62,-0.30,24.07,14.77,14.57,0.47,5.27,-0.65
21800,0.75,-0.30,-0.58,-0.16,10.56,0.53,2.87,-1.05,-2.45,0.16,0.68,-0.25,-0.62,-0.30,24.07,14.77,14.57,0.96,-2.79,0.69
21820,0.75,-0.30,-0.58,-0.16,10.56,0.53,2.87,-0.48,-2.67,0.24,0.67,-0.24,-0.65,-0.26,24.07,14.77,14.57,0.96,-2.79,0.69
21840,0.73,-0.32,-0.58,-0.18,10.56,0.53,2.87,-0.48,-2.67,0.24,0.67,-0.24,-0.65,-0.26,4.64,0.32,-6.89,0.96,-2.79,0.69
21860,0.73,-0.32,-0.58,-0.18,1.40,-8.16,-4.18,-0.48,-2.67,0.24,0.65,-0.26,-0.67,-0.24,4.64,0.32,-6.89,0.96,-2.79,0.69
21880,0.71,-0.33,-0.60,-0.17,1.40,-8.16,-4.18,-0.48,-2.67,0.24,0.65,-0.26,-0.67,-0.24,14.68,1.32,-4.36,0.96,-2.79,0.69
21900,0.71,-0.33,-0.60,-0.17,1.40,-8.16,-4.18,-0.42,-1.49,0.40,0.63,-0.28,-0.68,-0.23,14.68,1.32,-4.36,0.96,-2.79,0.69
21920,0.68,-0.34,-0.63,-0.16,1.40,-8.16,-4.18,-0.42,-1.49,0.40,0.63,-0.28,-0.68,-0.23,14.68,1.32,-4.36,0.78,-0.86,0.21
21940,0.68,-0.34,-0.63,-0.16,8.38,-1.35,-2.57,-0.42,-1.49,0.40,0.62,-0.28,-0.69,-0.23,14.68,1.32,-4.36,0.78,-0.86,0.21
21960,0.65,-0.36,-0.65,-0.16,8.38,-1.35,-2.57,-0.42,-1.49,0.40,0.62,-0.28,-0.69,-0.23,10.84,-0.17,-1.25,0.78,-0.86,0.21
21980,0.65,-0.36,-0.65,-0.16,8.95,-2.34,-1.73,-0.42,-1.49,0.40,0.61,-0.30,-0.70,-0.23,10.84,-0.17,-1.25,0.78,-0.86,0.21
22000,0.61,-0.38,-0.68,-0.16,8.95,-2.34,-1.73,-0.42,-1.49,0.40,0.61,-0.30,-0.70,-0.23,8.81,-1.86,-0.75,0.78,-0.86,0.21
22020,0.61,-0.38,-0.68,-0.16,8.95,-2.34,-1.73,-0.90,-2.35,-0.14,0.60,-0.31,-0.70,-0.23,8.81,-1.86,-0.75,0.78,-0.86,0.21
22040,0.57,-0.39,-0.71,-0.15,8.95,-2.34,-1.73,-0.90,-2.35,-0.14,0.60,-0.31,-0.70,-0.23,9.36,-0.29,-0.79,0.78,-0.86,0.21
