Time,QuatW,QuatX,QuatY,QuatZ,AccX,AccY,AccZ,GyroX,GyroY,GyroZ,QuatW2,QuatX2,QuatY2,QuatZ2,AccX2,AccY2,AccZ2,GyroX2,GyroY2,GyroZ2


1637,0.00,0.00,0.00,0.00,9.45,-2.30,-1.42,0.00,0.00,0.00,0.00,0.00,0.00,0.00,9.51,0.52,-2.21,0.00,0.00,0.00
1657,0.00,0.00,0.00,0.00,9.18,-1.73,-1.80,0.00,0.00,0.00,0.00,0.00,0.00,0.00,9.24,0.71,-2.63,0.00,0.00,0.00

1697,0.00,0.00,0.00,0.00,9.10,-1.16,-1.96,0.00,0.00,0.00,0.00,0.00,0.00,0.00,9.16,0.52,-2.71,0.00,0.00,0.00
1717,0.63,-0.06,-0.77,0.07,9.10,-1.16,-1.96,0.00,0.00,0.00,0.60,0.02,-0.80,-0.02,9.16,0.52,-2.71,0.00,0.00,0.00

1757,0.63,-0.06,-0.77,0.07,9.10,-1.16,-1.96,0.04,-0.16,0.06,0.60,0.02,-0.80,-0.02,9.16,0.52,-2.71,0.20,-0.04,0.05
1777,0.63,-0.06,-0.77,0.08,9.10,-1.16,-1.96,0.04,-0.16,0.06,0.60,0.02,-0.80,-0.02,9.16,0.52,-2.71,0.20,-0.04,0.05
1797,0.63,-0.06,-0.77,0.08,9.10,-1.16,-1.96,0.08,-0.12,0.03,0.60,0.02,-0.80,-0.02,9.16,0.52,-2.71,0.13,-0.03,0.08
1817,0.62,-0.06,-0.78,0.08,9.10,-1.16,-1.96,0.08,-0.12,0.03,0.60,0.02,-0.80,-0.01,9.16,0.52,-2.71,0.13,-0.03,0.08
1837,0.62,-0.06,-0.78,0.08,9.10,-1.16,-1.96,0.00,-0.15,0.09,0.60,0.02,-0.80,-0.01,9.16,0.52,-2.71,0.15,-0.05,0.07
1857,0.62,-0.06,-0.78,0.08,9.10,-1.16,-1.96,0.00,-0.15,0.09,0.60,0.02,-0.80,-0.01,9.16,0.52,-2.71,0.15,-0.05,0.07
1877,0.62,-0.06,-0.78,0.08,9.10,-1.16,-1.96,0.10,-0.11,0.07,0.60,0.02,-0.80,-0.01,9.16,0.52,-2.71,0.24,-0.05,0.07
1897,0.62,-0.06,-0.78,0.08,9.10,-1.16,-1.96,0.10,-0.11,0.07,0.60,0.03,-0.80,-0.00,9.16,0.52,-2.71,0.24,-0.05,0.07
1917,0.62,-0.06,-0.78,0.08,9.10,-1.16,-1.96,0.08,-0.06,0.04,0.60,0.03,-0.80,-0.00,9.16,0.52,-2.71,0.26,-0.05,0.07
1937,0.62,-0.06,-0.78,0.08,9.10,-1.16,-1.96,0.08,-0.06,0.04,0.60,0.03,-0.80,-0.00,9.16,0.52,-2.71,0.26,-0.05,0.07
1957,0.62,-0.06,-0.78,0.08,9.10,-1.16,-1.96,0.06,-0.17,0.10,0.60,0.03,-0.80,-0.00,9.16,0.52,-2.71,0.12,-0.04,0.06
1977,0.62,-0.06,-0.78,0.09,9.10,-1.16,-1.96,0.06,-0.17,0.10,0.59,0.03,-0.80,0.00,9.16,0.52,-2.71,0.12,-0.04,0.06
1997,0.62,-0.06,-0.78,0.09,9.10,-1.16,-1.96,0.23,-0.22,0.02,0.59,0.03,-0.80,0.00,9.16,0.52,-2.71,0.24,-0.09,0.07
2017,0.61,-0.05,-0.78,0.09,9.10,-1.16,-1.96,0.23,-0.22,0.02,0.59,0.03,-0.80,0.01,9.16,0.52,-2.71,0.24,-0.09,0.07
2037,0.61,-0.05,-0.78,0.09,9.10,-1.16,-1.96,0.26,-0.35,-0.05,0.59,0.03,-0.80,0.01,9.16,0.52,-2.71,0.15,-0.05,0.03
2057,0.61,-0.05,-0.79,0.09,9.10,-1.16,-1.96,0.26,-0.35,-0.05,0.59,0.03,-0.81,0.01,9.16,0.52,-2.71,0.15,-0.05,0.03
2077,0.61,-0.05,-0.79,0.09,9.10,-1.16,-1.96,-0.02,-0.29,0.01,0.59,0.03,-0.81,0.01,9.16,0.52,-2.71,-0.12,-0.11,0.05
2097,0.60,-0.05,-0.79,0.09,9.10,-1.16,-1.96,-0.02,-0.29,0.01,0.59,0.02,-0.81,0.00,9.16,0.52,-2.71,-0.12,-0.11,0.05
2117,0.60,-0.05,-0.79,0.09,9.10,-1.16,-1.96,-0.30,-0.16,0.03,0.59,0.02,-0.81,0.00,9.16,0.52,-2.71,-0.18,-0.22,0.06
2137,0.60,-0.06,-0.79,0.08,9.10,-1.16,-1.96,-0.30,-0.16,0.03,0.58,0.02,-0.81,-0.00,9.16,0.52,-2.71,-0.18,-0.22,0.06
2157,0.60,-0.06,-0.79,0.08,9.10,-1.16,-1.96,-0.32,-0.24,0.10,0.58,0.02,-0.81,-0.00,9.16,0.52,-2.71,-0.22,-0.19,0.04
2177,0.59,-0.06,-0.80,0.08,9.10,-1.16,-1.96,-0.32,-0.24,0.10,0.58,0.02,-0.81,0.00,9.16,0.52,-2.71,-0.22,-0.19,0.04
2197,0.59,-0.06,-0.80,0.08,9.10,-1.16,-1.96,-0.10,-0.31,-0.02,0.58,0.02,-0.81,0.00,9.16,0.52,-2.71,0.29,-0.21,-0.04
2217,0.59,-0.06,-0.80,0.08,9.10,-1.16,-1.96,-0.10,-0.31,-0.02,0.58,0.03,-0.82,0.00,9.16,0.52,-2.71,0.29,-0.21,-0.04
2237,0.59,-0.06,-0.80,0.08,9.10,-1.16,-1.96,0.05,-0.33,-0.07,0.58,0.03,-0.82,0.00,9.16,0.52,-2.71,-0.00,-0.32,-0.04
2257,0.58,-0.06,-0.81,0.08,9.10,-1.16,-1.96,0.05,-0.33,-0.07,0.57,0.03,-0.82,0.01,9.16,0.52,-2.71,-0.00,-0.32,-0.04
2277,0.58,-0.06,-0.81,0.08,9.10,-1.16,-1.96,-0.07,-0.29,-0.06,0.57,0.03,-0.82,0.01,9.16,0.52,-2.71,0.31,-0.36,-0.09
2297,0.58,-0.06,-0.81,0.08,9.10,-1.16,-1.96,-0.07,-0.29,-0.06,0.56,0.03,-0.82,0.00,9.16,0.52,-2.71,0.31,-0.36,-0.09
2317,0.58,-0.06,-0.81,0.08,9.10,-1.16,-1.96,-0.36,-0.45,0.02,0.56,0.03,-0.82,0.00,9.16,0.52,-2.71,-0.11,-0.37,-0.09
2337,0.57,-0.06,-0.82,0.07,9.10,-1.16,-1.96,-0.36,-0.45,0.02,0.56,0.03,-0.83,0.00,9.16,0.52,-2.71,-0.11,-0.37,-0.09
2357,0.57,-0.06,-0.82,0.07,9.10,-1.16,-1.96,-0.42,-0.49,-0.05,0.56,0.03,-0.83,0.00,9.16,0.52,-2.71,-0.11,-0.36,-0.10
2377,0.56,-0.07,-0.82,0.07,9.10,-1.16,-1.96,-0.42,-0.49,-0.05,0.55,0.03,-0.83,-0.00,9.16,0.52,-2.71,-0.11,-0.36,-0.10
2397,0.56,-0.07,-0.82,0.07,9.10,-1.16,-1.96,-0.27,-0.60,-0.05,0.55,0.03,-0.83,-0.00,9.16,0.52,-2.71,-0.18,-0.42,-0.09
2417,0.55,-0.07,-0.83,0.06,9.10,-1.16,-1.96,-0.27,-0.60,-0.05,0.54,0.03,-0.84,-0.01,9.16,0.52,-2.71,-0.18,-0.42,-0.09
2437,0.55,-0.07,-0.83,0.06,9.10,-1.16,-1.96,-0.34,-0.52,-0.11,0.54,0.03,-0.84,-0.01,9.16,0.52,-2.71,-0.17,-0.49,-0.10
2457,0.54,-0.07,-0.84,0.05,9.10,-1.16,-1.96,-0.34,-0.52,-0.11,0.53,0.03,-0.84,-0.02,9.16,0.52,-2.71,-0.17,-0.49,-0.10
2477,0.54,-0.07,-0.84,0.05,9.10,-1.16,-1.96,-0.66,-0.64,-0.03,0.53,0.03,-0.84,-0.02,9.16,0.52,-2.71,-0.45,-0.57,-0.13
2497,0.53,-0.08,-0.84,0.04,9.10,-1.16,-1.96,-0.66,-0.64,-0.03,0.52,0.02,-0.85,-0.03,9.16,0.52,-2.71,-0.45,-0.57,-0.13
2517,0.53,-0.08,-0.84,0.04,9.10,-1.16,-1.96,-0.82,-0.46,-0.04,0.52,0.02,-0.85,-0.03,9.55,0.98,-2.78,-0.45,-0.57,-0.13
2537,0.52,-0.09,-0.85,0.02,9.10,-1.16,-1.96,-0.82,-0.46,-0.04,0.51,0.02,-0.86,-0.04,9.55,0.98,-2.78,-0.45,-0.57,-0.13
2557,0.52,-0.09,-0.85,0.02,9.10,-1.16,-1.96,-0.71,-0.36,-0.10,0.51,0.02,-0.86,-0.04,9.55,0.98,-2.78,-0.07,-0.93,-0.22
2577,0.52,-0.08,-0.85,0.02,9.10,-1.16,-1.96,-0.71,-0.36,-0.10,0.49,0.02,-0.87,-0.04,9.55,0.98,-2.78,-0.07,-0.93,-0.22
2597,0.52,-0.08,-0.85,0.02,9.10,-1.16,-1.96,-0.22,0.34,-0.29,0.49,0.02,-0.87,-0.04,9.55,0.98,-2.78,-0.18,-1.24,-0.14
2617,0.54,-0.08,-0.84,0.01,9.10,-1.16,-1.96,-0.22,0.34,-0.29,0.46,0.02,-0.89,-0.05,9.55,0.98,-2.78,-0.18,-1.24,-0.14
2637,0.54,-0.08,-0.84,0.01,9.10,-1.16,-1.96,-0.18,1.09,-0.45,0.46,0.02,-0.89,-0.05,9.55,0.98,-2.78,-0.17,-1.50,-0.15
2657,0.56,-0.07,-0.82,0.00,9.10,-1.16,-1.96,-0.18,1.09,-0.45,0.43,0.02,-0.90,-0.06,9.55,0.98,-2.78,-0.17,-1.50,-0.15
2677,0.56,-0.07,-0.82,0.00,9.10,-1.16,-1.96,0.01,1.35,-0.43,0.43,0.02,-0.90,-0.06,9.55,0.98,-2.78,-0.50,-1.79,-0.01
2697,0.59,-0.07,-0.80,-0.01,9.10,-1.16,-1.96,0.01,1.35,-0.43,0.39,0.01,-0.92,-0.07,9.55,0.98,-2.78,-0.50,-1.79,-0.01
2717,0.59,-0.07,-0.80,-0.01,9.10,-1.16,-1.96,-0.09,1.80,-0.27,0.39,0.01,-0.92,-0.07,9.55,0.98,-2.78,-0.72,-1.98,0.10
2737,0.62,-0.07,-0.78,-0.01,9.10,-1.16,-1.96,-0.09,1.80,-0.27,0.36,-0.00,-0.93,-0.07,9.55,0.98,-2.78,-0.72,-1.98,0.10
2757,0.62,-0.07,-0.78,-0.01,9.10,-1.16,-1.96,-0.14,1.92,0.12,0.36,-0.00,-0.93,-0.07,9.55,0.98,-2.78,-0.16,-1.76,0.13
2777,0.65,-0.07,-0.76,-0.01,9.10,-1.16,-1.96,-0.14,1.92,0.12,0.34,-0.01,-0.94,-0.08,9.55,0.98,-2.78,-0.16,-1.76,0.13
2797,0.65,-0.07,-0.76,-0.01,9.10,-1.16,-1.96,0.38,1.92,0.15,0.34,-0.01,-0.94,-0.08,9.55,0.98,-2.78,-0.85,-0.99,0.22
2817,0.68,-0.06,-0.73,0.01,9.10,-1.16,-1.96,0.38,1.92,0.15,0.34,-0.00,-0.94,-0.06,9.55,0.98,-2.78,-0.85,-0.99,0.22
2837,0.68,-0.06,-0.73,0.01,9.10,-1.16,-1.96,0.91,1.75,0.31,0.34,-0.00,-0.94,-0.06,9.55,0.98,-2.78,1.46,0.38,0.18
2857,0.70,-0.05,-0.71,0.03,9.10,-1.16,-1.96,0.91,1.75,0.31,0.37,0.00,-0.93,-0.03,9.55,0.98,-2.78,1.46,0.38,0.18
2877,0.70,-0.05,-0.71,0.03,9.10,-1.16,-1.96,1.35,1.59,0.12,0.37,0.00,-0.93,-0.03,9.55,0.98,-2.78,1.40,1.42,0.21
2897,0.73,-0.03,-0.69,0.04,9.10,-1.16,-1.96,1.35,1.59,0.12,0.41,0.00,-0.91,-0.03,9.55,0.98,-2.78,1.40,1.42,0.21
2917,0.73,-0.03,-0.69,0.04,9.10,-1.16,-1.96,1.12,1.53,0.21,0.41,0.00,-0.91,-0.03,9.55,0.98,-2.78,-0.29,2.24,0.15
2937,0.74,-0.03,-0.67,0.06,9.10,-1.16,-1.96,1.12,1.53,0.21,0.46,-0.00,-0.89,-0.03,9.55,0.98,-2.78,-0.29,2.24,0.15
2957,0.74,-0.03,-0.67,0.06,9.10,-1.16,-1.96,1.00,1.20,0.28,0.46,-0.00,-0.89,-0.03,9.55,0.98,-2.78,-0.09,3.05,0.09
2977,0.76,-0.01,-0.65,0.08,9.10,-1.16,-1.96,1.00,1.20,0.28,0.52,0.01,-0.85,-0.02,9.55,0.98,-2.78,-0.09,3.05,0.09
2997,0.76,-0.01,-0.65,0.08,9.10,-1.16,-1.96,1.00,0.91,0.15,0.52,0.01,-0.85,-0.02,9.55,0.98,-2.78,0.94,3.70,-0.27
3017,0.76,-0.01,-0.64,0.08,9.10,-1.16,-1.96,1.00,0.91,0.15,0.59,0.02,-0.81,-0.02,9.55,0.98,-2.78,0.94,3.70,-0.27
3037,0.76,-0.01,-0.64,0.08,9.10,-1.16,-1.96,0.54,0.59,0.03,0.59,0.02,-0.81,-0.02,9.55,0.98,-2.78,-0.33,3.88,-0.39
3057,0.77,0.00,-0.63,0.09,9.10,-1.16,-1.96,0.54,0.59,0.03,0.65,0.02,-0.76,-0.03,9.55,0.98,-2.78,-0.33,3.88,-0.39
3077,0.77,0.00,-0.63,0.09,9.10,-1.16,-1.96,0.52,0.40,0.02,0.65,0.02,-0.76,-0.03,9.55,0.98,-2.78,-0.63,3.94,-0.37
3097,0.77,0.01,-0.63,0.10,9.10,-1.16,-1.96,0.52,0.40,0.02,0.70,0.03,-0.71,-0.04,9.55,0.98,-2.78,-0.63,3.94,-0.37
3117,0.77,0.01,-0.63,0.10,9.10,-1.16,-1.96,0.73,0.35,-0.02,0.70,0.03,-0.71,-0.04,9.55,0.98,-2.78,-0.06,3.70,-0.51
3137,0.77,0.01,-0.62,0.10,9.10,-1.16,-1.96,0.73,0.35,-0.02,0.74,0.03,-0.67,-0.05,9.55,0.98,-2.78,-0.06,3.70,-0.51
3157,0.77,0.01,-0.62,0.10,9.10,-1.16,-1.96,0.07,0.04,0.17,0.74,0.03,-0.67,-0.05,9.55,0.98,-2.78,-0.02,2.64,-0.44
3177,0.77,0.00,-0.62,0.11,9.10,-1.16,-1.96,0.07,0.04,0.17,0.76,0.04,-0.65,-0.05,9.55,0.98,-2.78,-0.02,2.64,-0.44
3197,0.77,0.00,-0.62,0.11,9.10,-1.16,-1.96,-0.25,0.05,0.40,0.76,0.04,-0.65,-0.05,9.55,0.98,-2.78,0.04,1.04,-0.05
3217,0.78,0.00,-0.62,0.11,9.10,-1.16,-1.96,-0.25,0.05,0.40,0.75,0.04,-0.66,-0.04,9.55,0.98,-2.78,0.04,1.04,-0.05
3237,0.78,0.00,-0.62,0.11,9.10,-1.16,-1.96,0.17,0.17,0.28,0.75,0.04,-0.66,-0.04,9.55,0.98,-2.78,0.59,-0.71,0.30
3257,0.77,-0.00,-0.62,0.12,9.10,-1.16,-1.96,0.17,0.17,0.28,0.73,0.05,-0.68,-0.02,9.55,0.98,-2.78,0.59,-0.71,0.30
3277,0.77,-0.00,-0.62,0.12,9.10,-1.16,-1.96,0.09,-0.52,0.50,0.73,0.05,-0.68,-0.02,9.55,0.98,-2.78,0.65,-1.38,0.21
3297,0.77,-0.00,-0.62,0.13,9.10,-1.16,-1.96,0.09,-0.52,0.50,0.71,0.08,-0.70,0.00,9.55,0.98,-2.78,0.65,-1.38,0.21
3317,0.77,-0.00,-0.62,0.13,7.61,3.98,2.10,0.09,-0.52,0.50,0.71,0.08,-0.70,0.00,7.74,1.13,-2.55,0.65,-1.38,0.21
3337,0.75,-0.00,-0.65,0.13,7.61,3.98,2.10,0.09,-0.52,0.50,0.69,0.08,-0.72,0.02,7.74,1.13,-2.55,0.65,-1.38,0.21
3357,0.75,-0.00,-0.65,0.13,7.61,3.98,2.10,-1.54,-1.79,-0.23,0.69,0.08,-0.72,0.02,7.74,1.13,-2.55,0.97,-1.39,0.46
3377,0.74,-0.02,-0.66,0.13,7.61,3.98,2.10,-1.54,-1.79,-0.23,0.67,0.08,-0.74,0.03,7.74,1.13,-2.55,0.97,-1.39,0.46
3397,0.74,-0.02,-0.66,0.13,7.61,3.98,2.10,-0.54,-1.51,1.04,0.67,0.08,-0.74,0.03,7.74,1.13,-2.55,0.42,-1.15,0.45
3417,0.72,-0.02,-0.68,0.13,7.61,3.98,2.10,-0.54,-1.51,1.04,0.66,0.08,-0.75,0.04,7.74,1.13,-2.55,0.42,-1.15,0.45
3437,0.72,-0.02,-0.68,0.13,9.18,-2.15,-0.23,-0.54,-1.51,1.04,0.66,0.08,-0.75,0.04,7.74,1.13,-2.55,0.47,-0.84,0.30
3457,0.70,-0.02,-0.70,0.13,9.18,-2.15,-0.23,-0.54,-1.51,1.04,0.65,0.07,-0.76,0.03,7.74,1.13,-2.55,0.47,-0.84,0.30
3477,0.70,-0.02,-0.70,0.13,9.18,-2.15,-0.23,-0.54,-1.34,0.02,0.65,0.07,-0.76,0.03,7.74,1.13,-2.55,-0.72,-0.78,0.32
3497,0.68,-0.04,-0.72,0.11,9.18,-2.15,-0.23,-0.54,-1.34,0.02,0.64,0.05,-0.77,0.02,7.74,1.13,-2.55,-0.72,-0.78,0.32
3517,0.68,-0.04,-0.72,0.11,9.57,-1.42,-1.54,-0.54,-1.34,0.02,0.64,0.05,-0.77,0.02,7.74,1.13,-2.55,-0.96,-0.62,0.23
3537,0.66,-0.06,-0.74,0.10,9.57,-1.42,-1.54,-0.54,-1.34,0.02,0.63,0.04,-0.78,0.00,7.74,1.13,-2.55,-0.96,-0.62,0.23
3557,0.66,-0.06,-0.74,0.10,8.80,-4.18,-0.93,-0.54,-1.34,0.02,0.63,0.04,-0.78,0.00,7.74,1.13,-2.55,-1.22,-0.65,0.20
3577,0.64,-0.07,-0.76,0.08,8.80,-4.18,-0.93,-0.54,-1.34,0.02,0.62,0.02,-0.79,-0.01,7.74,1.13,-2.55,-1.22,-0.65,0.20
3597,0.64,-0.07,-0.76,0.08,8.80,-4.18,-0.93,-0.86,-1.43,0.01,0.62,0.02,-0.79,-0.01,7.74,1.13,-2.55,-0.82,-0.69,0.09
3617,0.61,-0.07,-0.78,0.08,8.80,-4.18,-0.93,-0.86,-1.43,0.01,0.61,0.02,-0.79,-0.02,7.74,1.13,-2.55,-0.82,-0.69,0.09
3637,0.61,-0.07,-0.78,0.08,8.76,-2.19,-1.12,-0.86,-1.43,0.01,0.61,0.02,-0.79,-0.02,7.74,1.13,-2.55,-0.53,-0.73,0.04
3657,0.59,-0.08,-0.80,0.07,8.76,-2.19,-1.12,-0.86,-1.43,0.01,0.59,0.01,-0.80,-0.02,7.74,1.13,-2.55,-0.53,-0.73,0.04
3677,0.59,-0.08,-0.80,0.07,8.76,-2.19,-1.12,-0.75,-1.53,0.09,0.59,0.01,-0.80,-0.02,7.74,1.13,-2.55,-0.08,-0.82,0.00
3697,0.56,-0.09,-0.82,0.07,8.76,-2.19,-1.12,-0.75,-1.53,0.09,0.58,0.01,-0.81,-0.02,7.74,1.13,-2.55,-0.08,-0.82,0.00
3717,0.56,-0.09,-0.82,0.07,8.88,-1.84,-1.57,-0.75,-1.53,0.09,0.58,0.01,-0.81,-0.02,7.74,1.13,-2.55,-0.07,-1.03,0.07
3737,0.54,-0.09,-0.83,0.06,8.88,-1.84,-1.57,-0.75,-1.53,0.09,0.56,0.01,-0.83,-0.02,7.74,1.13,-2.55,-0.07,-1.03,0.07
3757,0.54,-0.09,-0.83,0.06,8.95,-1.92,-2.42,-0.75,-1.53,0.09,0.56,0.01,-0.83,-0.02,9.43,2.20,-1.79,-0.07,-1.03,0.07
3777,0.52,-0.10,-0.85,0.05,8.95,-1.92,-2.42,-0.75,-1.53,0.09,0.54,0.01,-0.84,-0.01,9.43,2.20,-1.79,-0.07,-1.03,0.07
3797,0.52,-0.10,-0.85,0.05,8.95,-1.92,-2.42,-0.66,-1.10,0.01,0.54,0.01,-0.84,-0.01,9.43,2.20,-1.79,0.43,-1.42,0.01
3817,0.51,-0.11,-0.85,0.04,8.95,-1.92,-2.42,-0.66,-1.10,0.01,0.51,0.02,-0.86,-0.01,9.43,2.20,-1.79,0.43,-1.42,0.01
3837,0.51,-0.11,-0.85,0.04,12.63,-2.61,-1.04,-0.66,-1.10,0.01,0.51,0.02,-0.86,-0.01,9.43,2.20,-1.79,0.38,-1.93,0.14
3857,0.52,-0.11,-0.85,0.02,12.63,-2.61,-1.04,-0.66,-1.10,0.01,0.47,0.01,-0.89,-0.00,9.43,2.20,-1.79,0.38,-1.93,0.14
3877,0.52,-0.11,-0.85,0.02,11.52,-0.04,1.14,-0.66,-1.10,0.01,0.47,0.01,-0.89,-0.00,9.43,2.20,-1.79,0.01,-2.40,0.29
3897,0.53,-0.12,-0.84,0.00,11.52,-0.04,1.14,-0.66,-1.10,0.01,0.42,-0.00,-0.91,-0.01,9.43,2.20,-1.79,0.01,-2.40,0.29
3917,0.53,-0.12,-0.84,0.00,11.52,-0.04,1.14,-0.93,1.14,-0.23,0.42,-0.00,-0.91,-0.01,9.43,2.20,-1.79,-0.56,-2.92,0.56
3937,0.58,-0.11,-0.81,-0.01,11.52,-0.04,1.14,-0.93,1.14,-0.23,0.36,-0.02,-0.93,-0.02,9.43,2.20,-1.79,-0.56,-2.92,0.56
3957,0.58,-0.11,-0.81,-0.01,16.45,-2.27,4.78,-0.93,1.14,-0.23,0.36,-0.02,-0.93,-0.02,9.43,2.20,-1.79,-0.84,-3.12,0.46
3977,0.62,-0.11,-0.78,-0.03,16.45,-2.27,4.78,-0.93,1.14,-0.23,0.30,-0.03,-0.95,-0.03,9.43,2.20,-1.79,-0.84,-3.12,0.46
3997,0.62,-0.11,-0.78,-0.03,14.70,-5.71,-7.48,-0.93,1.14,-0.23,0.30,-0.03,-0.95,-0.03,9.43,2.20,-1.79,-0.71,-2.79,0.20
4017,0.66,-0.10,-0.74,-0.01,14.70,-5.71,-7.48,-0.93,1.14,-0.23,0.28,-0.02,-0.96,-0.01,9.43,2.20,-1.79,-0.71,-2.79,0.20
4037,0.66,-0.10,-0.74,-0.01,15.12,-7.32,-4.72,-0.93,1.14,-0.23,0.28,-0.02,-0.96,-0.01,9.43,2.20,-1.79,1.04,-1.10,-0.27
4057,0.70,-0.08,-0.71,-0.00,15.12,-7.32,-4.72,-0.93,1.14,-0.23,0.29,-0.02,-0.96,-0.02,9.43,2.20,-1.79,1.04,-1.10,-0.27
4077,0.70,-0.08,-0.71,-0.00,15.12,-7.32,-4.72,1.01,2.51,-0.08,0.29,-0.02,-0.96,-0.02,9.43,2.20,-1.79,-0.22,0.86,0.03
4097,0.73,-0.08,-0.68,0.01,15.12,-7.32,-4.72,1.01,2.51,-0.08,0.34,-0.02,-0.94,-0.01,9.43,2.20,-1.79,-0.22,0.86,0.03
4117,0.73,-0.08,-0.68,0.01,7.15,-1.16,-4.14,1.01,2.51,-0.08,0.34,-0.02,-0.94,-0.01,9.43,2.20,-1.79,0.75,2.66,-0.12
4137,0.76,-0.07,-0.65,0.02,7.15,-1.16,-4.14,1.01,2.51,-0.08,0.41,-0.02,-0.91,-0.02,9.43,2.20,-1.79,0.75,2.66,-0.12
4157,0.76,-0.07,-0.65,0.02,6.08,-1.88,-3.84,1.01,2.51,-0.08,0.41,-0.02,-0.91,-0.02,5.71,0.06,-3.55,0.75,2.66,-0.12
4177,0.77,-0.05,-0.63,0.05,6.08,-1.88,-3.84,1.01,2.51,-0.08,0.50,-0.01,-0.87,-0.02,5.71,0.06,-3.55,0.75,2.66,-0.12
4197,0.77,-0.05,-0.63,0.05,6.08,-1.88,-3.84,1.80,0.98,0.31,0.50,-0.01,-0.87,-0.02,5.71,0.06,-3.55,-0.09,4.99,-0.40
4217,0.78,-0.03,-0.63,0.07,6.08,-1.88,-3.84,1.80,0.98,0.31,0.58,-0.01,-0.81,-0.04,5.71,0.06,-3.55,-0.09,4.99,-0.40
4237,0.78,-0.03,-0.63,0.07,4.93,0.61,-4.56,1.80,0.98,0.31,0.58,-0.01,-0.81,-0.04,5.71,0.06,-3.55,-1.12,5.38,-0.47
4257,0.78,-0.03,-0.62,0.08,4.93,0.61,-4.56,1.80,0.98,0.31,0.67,-0.02,-0.74,-0.07,5.71,0.06,-3.55,-1.12,5.38,-0.47
4277,0.78,-0.03,-0.62,0.08,6.27,0.49,-0.43,1.80,0.98,0.31,0.67,-0.02,-0.74,-0.07,5.71,0.06,-3.55,-1.65,5.50,-0.09
4297,0.78,-0.03,-0.62,0.09,6.27,0.49,-0.43,1.80,0.98,0.31,0.74,0.00,-0.67,-0.07,5.71,0.06,-3.55,-1.65,5.50,-0.09
4317,0.78,-0.03,-0.62,0.09,7.69,-1.20,1.41,1.80,0.98,0.31,0.74,0.00,-0.67,-0.07,5.71,0.06,-3.55,0.86,5.04,-0.52
4337,0.77,-0.03,-0.62,0.10,7.69,-1.20,1.41,1.80,0.98,0.31,0.78,0.01,-0.62,-0.07,5.71,0.06,-3.55,0.86,5.04,-0.52
4357,0.77,-0.03,-0.62,0.10,12.06,-1.73,8.92,1.80,0.98,0.31,0.78,0.01,-0.62,-0.07,5.71,0.06,-3.55,-0.02,3.00,-0.21
4377,0.77,-0.02,-0.62,0.11,12.06,-1.73,8.92,1.80,0.98,0.31,0.78,0.01,-0.62,-0.06,5.71,0.06,-3.55,-0.02,3.00,-0.21
4397,0.77,-0.02,-0.62,0.11,12.71,-0.43,7.46,1.80,0.98,0.31,0.78,0.01,-0.62,-0.06,5.71,0.06,-3.55,0.37,-0.24,0.29
4417,0.78,-0.01,-0.62,0.12,12.71,-0.43,7.46,1.80,0.98,0.31,0.76,0.04,-0.65,-0.04,5.71,0.06,-3.55,0.37,-0.24,0.29
4437,0.78,-0.01,-0.62,0.12,10.98,-4.26,3.98,1.80,0.98,0.31,0.76,0.04,-0.65,-0.04,5.71,0.06,-3.55,1.84,-2.36,0.22
4457,0.77,-0.01,-0.63,0.13,10.98,-4.26,3.98,1.80,0.98,0.31,0.73,0.08,-0.68,-0.00,5.71,0.06,-3.55,1.84,-2.36,0.22
4477,0.77,-0.01,-0.63,0.13,18.53,-2.69,-0.73,1.80,0.98,0.31,0.73,0.08,-0.68,-0.00,5.71,0.06,-3.55,2.89,-1.86,0.09
4497,0.76,0.00,-0.64,0.14,18.53,-2.69,-0.73,1.80,0.98,0.31,0.70,0.09,-0.70,0.02,5.71,0.06,-3.55,2.89,-1.86,0.09
4517,0.76,0.00,-0.64,0.14,4.58,1.22,-9.70,1.80,0.98,0.31,0.70,0.09,-0.70,0.02,5.71,0.06,-3.55,1.34,-1.78,0.51
4537,0.74,-0.03,-0.66,0.13,4.58,1.22,-9.70,1.80,0.98,0.31,0.68,0.09,-0.72,0.02,5.71,0.06,-3.55,1.34,-1.78,0.51
4557,0.74,-0.03,-0.66,0.13,9.48,-6.98,-2.99,1.80,0.98,0.31,0.68,0.09,-0.72,0.02,10.20,-1.21,-4.74,1.34,-1.78,0.51
4577,0.72,-0.02,-0.68,0.14,9.48,-6.98,-2.99,1.80,0.98,0.31,0.67,0.09,-0.74,0.03,10.20,-1.21,-4.74,1.34,-1.78,0.51
4597,0.72,-0.02,-0.68,0.14,8.22,-2.65,-1.38,1.80,0.98,0.31,0.67,0.09,-0.74,0.03,10.20,-1.21,-4.74,0.76,-1.06,0.21
4617,0.70,-0.01,-0.70,0.14,8.22,-2.65,-1.38,1.80,0.98,0.31,0.65,0.09,-0.75,0.04,10.20,-1.21,-4.74,0.76,-1.06,0.21
4637,0.70,-0.01,-0.70,0.14,8.22,-2.65,-1.38,0.01,-1.79,0.01,0.65,0.09,-0.75,0.04,10.20,-1.21,-4.74,-0.05,-0.93,0.21
4657,0.67,-0.02,-0.73,0.13,8.22,-2.65,-1.38,0.01,-1.79,0.01,0.64,0.08,-0.76,0.03,10.20,-1.21,-4.74,-0.05,-0.93,0.21
4677,0.67,-0.02,-0.73,0.13,8.88,-1.73,-1.04,0.01,-1.79,0.01,0.64,0.08,-0.76,0.03,10.20,-1.21,-4.74,-0.44,-0.81,0.19
4697,0.64,-0.03,-0.75,0.13,8.88,-1.73,-1.04,0.01,-1.79,0.01,0.63,0.08,-0.77,0.03,10.20,-1.21,-4.74,-0.44,-0.81,0.19
4717,0.64,-0.03,-0.75,0.13,8.60,-3.07,-1.61,0.01,-1.79,0.01,0.63,0.08,-0.77,0.03,10.20,-1.21,-4.74,-0.22,-0.80,0.16
4737,0.61,-0.04,-0.78,0.12,8.60,-3.07,-1.61,0.01,-1.79,0.01,0.62,0.07,-0.78,0.02,10.20,-1.21,-4.74,-0.22,-0.80,0.16
4757,0.61,-0.04,-0.78,0.12,8.46,-3.15,-1.84,0.01,-1.79,0.01,0.62,0.07,-0.78,0.02,10.20,-1.21,-4.74,-0.27,-0.86,0.11
4777,0.58,-0.04,-0.81,0.11,8.46,-3.15,-1.84,0.01,-1.79,0.01,0.60,0.07,-0.80,0.02,10.20,-1.21,-4.74,-0.27,-0.86,0.11
4797,0.58,-0.04,-0.81,0.11,8.46,-3.15,-1.84,-0.81,-2.22,0.22,0.60,0.07,-0.80,0.02,10.20,-1.21,-4.74,-0.16,-0.96,0.10
4817,0.54,-0.06,-0.83,0.10,8.46,-3.15,-1.84,-0.81,-2.22,0.22,0.58,0.06,-0.81,0.02,10.20,-1.21,-4.74,-0.16,-0.96,0.10
4837,0.54,-0.06,-0.83,0.10,10.79,-1.23,-0.54,-0.81,-2.22,0.22,0.58,0.06,-0.81,0.02,10.20,-1.21,-4.74,-0.16,-1.19,0.13
4857,0.52,-0.07,-0.85,0.09,10.79,-1.23,-0.54,-0.81,-2.22,0.22,0.56,0.06,-0.83,0.02,10.20,-1.21,-4.74,-0.16,-1.19,0.13
4877,0.52,-0.07,-0.85,0.09,9.18,-2.11,0.03,-0.81,-2.22,0.22,0.56,0.06,-0.83,0.02,10.20,-1.21,-4.74,-0.09,-1.68,0.18
4897,0.51,-0.09,-0.86,0.07,9.18,-2.11,0.03,-0.81,-2.22,0.22,0.52,0.06,-0.85,0.01,10.20,-1.21,-4.74,-0.09,-1.68,0.18
4917,0.51,-0.09,-0.86,0.07,12.17,-3.11,-1.16,-0.81,-2.22,0.22,0.52,0.06,-0.85,0.01,11.27,1.97,-1.25,-0.09,-1.68,0.18
4937,0.51,-0.10,-0.85,0.04,12.17,-3.11,-1.16,-0.81,-2.22,0.22,0.48,0.05,-0.88,0.01,11.27,1.97,-1.25,-0.09,-1.68,0.18
4957,0.51,-0.10,-0.85,0.04,13.05,-2.30,0.88,-0.81,-2.22,0.22,0.48,0.05,-0.88,0.01,11.27,1.97,-1.25,-0.33,-2.73,0.37
4977,0.54,-0.11,-0.84,0.02,13.05,-2.30,0.88,-0.81,-2.22,0.22,0.42,0.03,-0.91,0.00,11.27,1.97,-1.25,-0.33,-2.73,0.37
4997,0.54,-0.11,-0.84,0.02,14.31,-2.57,5.24,-0.81,-2.22,0.22,0.42,0.03,-0.91,0.00,11.27,1.97,-1.25,-0.65,-3.19,0.58
5017,0.58,-0.10,-0.81,-0.00,14.31,-2.57,5.24,-0.81,-2.22,0.22,0.36,0.01,-0.93,-0.03,11.27,1.97,-1.25,-0.65,-3.19,0.58
5037,0.58,-0.10,-0.81,-0.00,15.92,-4.34,1.72,-0.81,-2.22,0.22,0.36,0.01,-0.93,-0.03,11.27,1.97,-1.25,-2.04,-3.53,0.61
5057,0.62,-0.10,-0.78,-0.01,15.92,-4.34,1.72,-0.81,-2.22,0.22,0.30,-0.01,-0.95,-0.06,11.27,1.97,-1.25,-2.04,-3.53,0.61
5077,0.62,-0.10,-0.78,-0.01,14.36,-2.61,-7.32,-0.81,-2.22,0.22,0.30,-0.01,-0.95,-0.06,11.27,1.97,-1.25,-1.71,-2.85,0.22
5097,0.66,-0.10,-0.74,-0.01,14.36,-2.61,-7.32,-0.81,-2.22,0.22,0.29,-0.02,-0.96,-0.05,11.27,1.97,-1.25,-1.71,-2.85,0.22
5117,0.66,-0.10,-0.74,-0.01,11.64,-2.73,-8.05,-0.81,-2.22,0.22,0.29,-0.02,-0.96,-0.05,11.27,1.97,-1.25,0.90,-0.60,0.34
5137,0.70,-0.10,-0.71,-0.01,11.64,-2.73,-8.05,-0.81,-2.22,0.22,0.31,-0.04,-0.95,-0.06,11.27,1.97,-1.25,0.90,-0.60,0.34
5157,0.70,-0.10,-0.71,-0.01,11.48,-1.77,-5.41,-0.81,-2.22,0.22,0.31,-0.04,-0.95,-0.06,11.27,1.97,-1.25,-0.89,1.52,0.88
5177,0.72,-0.11,-0.68,-0.01,11.48,-1.77,-5.41,-0.81,-2.22,0.22,0.37,-0.04,-0.93,-0.03,11.27,1.97,-1.25,-0.89,1.52,0.88
5197,0.72,-0.11,-0.68,-0.01,6.89,-2.23,-3.64,-0.81,-2.22,0.22,0.37,-0.04,-0.93,-0.03,11.27,1.97,-1.25,1.36,3.27,0.64
5217,0.75,-0.10,-0.65,0.01,6.89,-2.23,-3.64,-0.81,-2.22,0.22,0.45,-0.04,-0.89,-0.03,11.27,1.97,-1.25,1.36,3.27,0.64
5237,0.75,-0.10,-0.65,0.01,6.19,-2.57,-4.07,-0.81,-2.22,0.22,0.45,-0.04,-0.89,-0.03,11.27,1.97,-1.25,0.33,4.27,0.35
5257,0.77,-0.08,-0.64,0.04,6.19,-2.57,-4.07,-0.81,-2.22,0.22,0.53,-0.05,-0.85,-0.04,11.27,1.97,-1.25,0.33,4.27,0.35
5277,0.77,-0.08,-0.64,0.04,4.66,-3.57,-3.76,-0.81,-2.22,0.22,0.53,-0.05,-0.85,-0.04,11.27,1.97,-1.25,-0.87,4.75,0.05
5297,0.77,-0.06,-0.63,0.07,4.66,-3.57,-3.76,-0.81,-2.22,0.22,0.61,-0.05,-0.79,-0.06,11.27,1.97,-1.25,-0.87,4.75,0.05
5317,0.77,-0.06,-0.63,0.07,5.85,0.18,-2.15,-0.81,-2.22,0.22,0.61,-0.05,-0.79,-0.06,8.55,-0.02,-7.07,-0.87,4.75,0.05
5337,0.78,-0.05,-0.62,0.09,5.85,0.18,-2.15,-0.81,-2.22,0.22,0.68,-0.04,-0.73,-0.06,8.55,-0.02,-7.07,-0.87,4.75,0.05
5357,0.78,-0.05,-0.62,0.09,6.30,0.18,-1.16,-0.81,-2.22,0.22,0.68,-0.04,-0.73,-0.06,8.55,-0.02,-7.07,0.10,4.95,-0.01
5377,0.78,-0.05,-0.62,0.10,6.30,0.18,-1.16,-0.81,-2.22,0.22,0.75,-0.02,-0.66,-0.06,8.55,-0.02,-7.07,0.10,4.95,-0.01
5397,0.78,-0.05,-0.62,0.10,6.91,-1.31,1.53,-0.81,-2.22,0.22,0.75,-0.02,-0.66,-0.06,10.20,0.67,-6.04,0.10,4.95,-0.01
5417,0.78,-0.04,-0.62,0.12,6.91,-1.31,1.53,-0.81,-2.22,0.22,0.79,-0.00,-0.62,-0.05,10.20,0.67,-6.04,0.10,4.95,-0.01
5437,0.78,-0.04,-0.62,0.12,9.22,-1.61,4.29,-0.81,-2.22,0.22,0.79,-0.00,-0.62,-0.05,10.20,0.67,-6.04,0.80,2.95,-0.31
5457,0.77,-0.04,-0.62,0.14,9.22,-1.61,4.29,-0.81,-2.22,0.22,0.80,0.01,-0.60,-0.04,10.20,0.67,-6.04,0.80,2.95,-0.31
5477,0.77,-0.04,-0.62,0.14,11.70,1.41,6.58,-0.81,-2.22,0.22,0.80,0.01,-0.60,-0.04,10.20,0.67,-6.04,0.76,0.44,0.16
5497,0.77,-0.02,-0.62,0.15,11.70,1.41,6.58,-0.81,-2.22,0.22,0.77,0.04,-0.63,-0.01,10.20,0.67,-6.04,0.76,0.44,0.16
5517,0.77,-0.02,-0.62,0.15,12.86,-3.22,7.66,-0.81,-2.22,0.22,0.77,0.04,-0.63,-0.01,10.20,0.67,-6.04,2.16,-2.23,0.22
5537,0.77,-0.01,-0.62,0.16,12.86,-3.22,7.66,-0.81,-2.22,0.22,0.75,0.08,-0.66,0.02,10.20,0.67,-6.04,2.16,-2.23,0.22
5557,0.77,-0.01,-0.62,0.16,20.94,-1.65,2.83,-0.81,-2.22,0.22,0.75,0.08,-0.66,0.02,10.20,0.67,-6.04,3.08,-1.67,-0.08
5577,0.76,-0.01,-0.63,0.16,20.94,-1.65,2.83,-0.81,-2.22,0.22,0.72,0.09,-0.69,0.04,10.20,0.67,-6.04,3.08,-1.67,-0.08
5597,0.76,-0.01,-0.63,0.16,3.05,2.29,-10.12,-0.81,-2.22,0.22,0.72,0.09,-0.69,0.04,10.20,0.67,-6.04,1.29,-2.08,0.52
5617,0.75,-0.03,-0.64,0.15,3.05,2.29,-10.12,-0.81,-2.22,0.22,0.69,0.09,-0.72,0.04,10.20,0.67,-6.04,1.29,-2.08,0.52
5637,0.75,-0.03,-0.64,0.15,6.61,-9.77,-0.04,-0.81,-2.22,0.22,0.69,0.09,-0.72,0.04,10.20,0.67,-6.04,-0.06,-1.75,0.46
5657,0.74,-0.03,-0.66,0.16,6.61,-9.77,-0.04,-0.81,-2.22,0.22,0.67,0.09,-0.73,0.05,10.20,0.67,-6.04,-0.06,-1.75,0.46
5677,0.74,-0.03,-0.66,0.16,8.42,-2.07,-1.38,-0.81,-2.22,0.22,0.67,0.09,-0.73,0.05,10.20,0.67,-6.04,0.54,-1.34,0.24
5697,0.72,-0.02,-0.68,0.15,8.42,-2.07,-1.38,-0.81,-2.22,0.22,0.65,0.09,-0.75,0.05,10.20,0.67,-6.04,0.54,-1.34,0.24
5717,0.72,-0.02,-0.68,0.15,9.41,-1.84,-2.69,-0.81,-2.22,0.22,0.65,0.09,-0.75,0.05,10.20,0.67,-6.04,-0.12,-1.12,0.25
5737,0.69,-0.03,-0.70,0.15,9.41,-1.84,-2.69,-0.81,-2.22,0.22,0.64,0.08,-0.76,0.04,10.20,0.67,-6.04,-0.12,-1.12,0.25
5757,0.69,-0.03,-0.70,0.15,8.68,-3.15,-1.92,-0.81,-2.22,0.22,0.64,0.08,-0.76,0.04,9.85,-0.94,-2.67,-0.12,-1.12,0.25
5777,0.67,-0.05,-0.73,0.13,8.68,-3.15,-1.92,-0.81,-2.22,0.22,0.63,0.07,-0.77,0.04,9.85,-0.94,-2.67,-0.12,-1.12,0.25
5797,0.67,-0.05,-0.73,0.13,8.42,-3.64,-1.50,-0.81,-2.22,0.22,0.63,0.07,-0.77,0.04,9.85,-0.94,-2.67,-0.21,-0.74,0.11
5817,0.64,-0.05,-0.76,0.12,8.42,-3.64,-1.50,-0.81,-2.22,0.22,0.62,0.07,-0.78,0.03,9.85,-0.94,-2.67,-0.21,-0.74,0.11
5837,0.64,-0.05,-0.76,0.12,8.72,-3.11,-1.54,-0.81,-2.22,0.22,0.62,0.07,-0.78,0.03,9.51,0.32,-2.02,-0.21,-0.74,0.11
5857,0.60,-0.06,-0.79,0.12,8.72,-3.11,-1.54,-0.81,-2.22,0.22,0.61,0.06,-0.79,0.03,9.51,0.32,-2.02,-0.21,-0.74,0.11
5877,0.60,-0.06,-0.79,0.12,8.64,-1.39,-2.15,-0.81,-2.22,0.22,0.61,0.06,-0.79,0.03,9.51,0.32,-2.02,-0.16,-0.81,0.06
5897,0.57,-0.07,-0.81,0.10,8.64,-1.39,-2.15,-0.81,-2.22,0.22,0.59,0.06,-0.80,0.03,9.51,0.32,-2.02,-0.16,-0.81,0.06
5917,0.57,-0.07,-0.81,0.10,8.60,-2.96,-1.96,-0.81,-2.22,0.22,0.59,0.06,-0.80,0.03,9.51,0.32,-2.02,-0.27,-0.95,0.07
5937,0.53,-0.08,-0.84,0.09,8.60,-2.96,-1.96,-0.81,-2.22,0.22,0.57,0.05,-0.82,0.02,9.51,0.32,-2.02,-0.27,-0.95,0.07
5957,0.53,-0.08,-0.84,0.09,9.29,-2.07,-0.96,-0.81,-2.22,0.22,0.57,0.05,-0.82,0.02,9.51,0.32,-2.02,-0.59,-1.20,0.15
5977,0.51,-0.10,-0.85,0.07,9.29,-2.07,-0.96,-0.81,-2.22,0.22,0.55,0.05,-0.84,0.02,9.51,0.32,-2.02,-0.59,-1.20,0.15
5997,0.51,-0.10,-0.85,0.07,10.18,-3.64,-0.62,-0.81,-2.22,0.22,0.55,0.05,-0.84,0.02,9.51,0.32,-2.02,-0.11,-1.62,0.11
6017,0.50,-0.11,-0.86,0.05,10.18,-3.64,-0.62,-0.81,-2.22,0.22,0.51,0.05,-0.86,0.01,9.51,0.32,-2.02,-0.11,-1.62,0.11
6037,0.50,-0.11,-0.86,0.05,12.09,-4.83,-1.61,-0.81,-2.22,0.22,0.51,0.05,-0.86,0.01,9.51,0.32,-2.02,-0.17,-2.12,0.15
6057,0.50,-0.12,-0.86,0.03,12.09,-4.83,-1.61,-0.81,-2.22,0.22,0.47,0.04,-0.88,0.01,9.51,0.32,-2.02,-0.17,-2.12,0.15
6077,0.50,-0.12,-0.86,0.03,16.11,-4.26,2.91,-0.81,-2.22,0.22,0.47,0.04,-0.88,0.01,9.51,0.32,-2.02,-0.09,-2.59,0.24
6097,0.53,-0.12,-0.84,0.01,16.11,-4.26,2.91,-0.81,-2.22,0.22,0.41,0.02,-0.91,-0.01,9.51,0.32,-2.02,-0.09,-2.59,0.24
6117,0.53,-0.12,-0.84,0.01,16.03,-6.25,6.93,-0.81,-2.22,0.22,0.41,0.02,-0.91,-0.01,9.51,0.32,-2.02,-1.11,-3.20,0.53
6137,0.57,-0.11,-0.81,-0.01,16.03,-6.25,6.93,-0.81,-2.22,0.22,0.35,-0.01,-0.93,-0.05,9.51,0.32,-2.02,-1.11,-3.20,0.53
6157,0.57,-0.11,-0.81,-0.01,16.03,-6.25,6.93,-0.15,3.14,-0.96,0.35,-0.01,-0.93,-0.05,16.29,2.43,0.01,-1.11,-3.20,0.53
6177,0.62,-0.12,-0.78,-0.02,16.03,-6.25,6.93,-0.15,3.14,-0.96,0.30,-0.02,-0.95,-0.07,16.29,2.43,0.01,-1.11,-3.20,0.53
6197,0.62,-0.12,-0.78,-0.02,14.62,-4.79,-8.39,-0.15,3.14,-0.96,0.30,-0.02,-0.95,-0.07,13.80,-5.84,-8.18,-1.11,-3.20,0.53
6217,0.67,-0.11,-0.74,-0.01,14.62,-4.79,-8.39,-0.15,3.14,-0.96,0.29,-0.02,-0.95,-0.05,13.80,-5.84,-8.18,-1.11,-3.20,0.53
6237,0.67,-0.11,-0.74,-0.01,14.62,-4.79,-8.39,1.74,3.17,0.32,0.29,-0.02,-0.95,-0.05,13.80,-5.84,-8.18,0.25,-0.23,0.44
6257,0.70,-0.10,-0.70,0.00,14.62,-4.79,-8.39,1.74,3.17,0.32,0.32,-0.02,-0.95,-0.04,13.80,-5.84,-8.18,0.25,-0.23,0.44
6277,0.70,-0.10,-0.70,0.00,10.79,-1.58,-5.52,1.74,3.17,0.32,0.32,-0.02,-0.95,-0.04,13.80,-5.84,-8.18,0.95,1.47,0.40
6297,0.74,-0.10,-0.67,0.02,10.79,-1.58,-5.52,1.74,3.17,0.32,0.37,-0.02,-0.93,-0.01,13.80,-5.84,-8.18,0.95,1.47,0.40
6317,0.74,-0.10,-0.67,0.02,6.73,-1.96,-4.41,1.74,3.17,0.32,0.37,-0.02,-0.93,-0.01,13.80,-5.84,-8.18,1.09,3.16,0.13
6337,0.76,-0.09,-0.64,0.04,6.73,-1.96,-4.41,1.74,3.17,0.32,0.45,-0.01,-0.89,-0.01,13.80,-5.84,-8.18,1.09,3.16,0.13
6357,0.76,-0.09,-0.64,0.04,5.16,-2.00,-4.60,1.74,3.17,0.32,0.45,-0.01,-0.89,-0.01,13.80,-5.84,-8.18,-0.10,4.15,-0.08
6377,0.77,-0.07,-0.62,0.07,5.16,-2.00,-4.60,1.74,3.17,0.32,0.53,-0.00,-0.85,-0.01,13.80,-5.84,-8.18,-0.10,4.15,-0.08
6397,0.77,-0.07,-0.62,0.07,3.28,-0.62,-5.60,1.74,3.17,0.32,0.53,-0.00,-0.85,-0.01,13.80,-5.84,-8.18,0.67,5.05,-0.30
6417,0.78,-0.05,-0.62,0.09,3.28,-0.62,-5.60,1.74,3.17,0.32,0.62,0.01,-0.78,-0.01,13.80,-5.84,-8.18,0.67,5.05,-0.30
6437,0.78,-0.05,-0.62,0.09,4.24,0.64,-4.64,1.74,3.17,0.32,0.62,0.01,-0.78,-0.01,13.80,-5.84,-8.18,0.17,5.43,-0.73
6457,0.77,-0.04,-0.63,0.11,4.24,0.64,-4.64,1.74,3.17,0.32,0.70,0.01,-0.71,-0.03,13.80,-5.84,-8.18,0.17,5.43,-0.73
6477,0.77,-0.04,-0.63,0.11,7.96,1.11,0.26,1.74,3.17,0.32,0.70,0.01,-0.71,-0.03,11.27,1.40,-10.06,0.17,5.43,-0.73
6497,0.77,-0.03,-0.63,0.12,7.96,1.11,0.26,1.74,3.17,0.32,0.76,0.01,-0.65,-0.04,11.27,1.40,-10.06,0.17,5.43,-0.73
6517,0.77,-0.03,-0.63,0.12,10.09,0.45,3.59,1.74,3.17,0.32,0.76,0.01,-0.65,-0.04,11.27,1.40,-10.06,-0.30,4.18,-0.46
6537,0.77,-0.04,-0.62,0.14,10.09,0.45,3.59,1.74,3.17,0.32,0.78,0.00,-0.62,-0.05,11.27,1.40,-10.06,-0.30,4.18,-0.46
6557,0.77,-0.04,-0.62,0.14,13.59,-0.04,8.42,1.74,3.17,0.32,0.78,0.00,-0.62,-0.05,4.34,-0.17,-7.50,-0.30,4.18,-0.46
6577,0.77,-0.04,-0.62,0.14,13.59,-0.04,8.42,1.74,3.17,0.32,0.76,0.01,-0.65,-0.03,4.34,-0.17,-7.50,-0.30,4.18,-0.46
6597,0.77,-0.04,-0.62,0.14,10.94,0.64,5.01,1.74,3.17,0.32,0.76,0.01,-0.65,-0.03,4.34,-0.17,-7.50,1.07,-1.93,0.18
6617,0.77,-0.04,-0.62,0.15,10.94,0.64,5.01,1.74,3.17,0.32,0.74,0.06,-0.67,0.00,4.34,-0.17,-7.50,1.07,-1.93,0.18
6637,0.77,-0.04,-0.62,0.15,10.94,0.64,5.01,0.51,-0.22,0.51,0.74,0.06,-0.67,0.00,20.93,4.23,-2.17,1.07,-1.93,0.18
6657,0.76,-0.02,-0.63,0.16,10.94,0.64,5.01,0.51,-0.22,0.51,0.71,0.07,-0.70,0.03,20.93,4.23,-2.17,1.07,-1.93,0.18
6677,0.76,-0.02,-0.63,0.16,4.81,2.60,-2.76,0.51,-0.22,0.51,0.71,0.07,-0.70,0.03,10.54,-5.30,-6.61,1.07,-1.93,0.18
6697,0.75,-0.03,-0.65,0.16,4.81,2.60,-2.76,0.51,-0.22,0.51,0.69,0.07,-0.72,0.03,10.54,-5.30,-6.61,1.07,-1.93,0.18
6717,0.75,-0.03,-0.65,0.16,10.07,-3.38,-3.15,0.51,-0.22,0.51,0.69,0.07,-0.72,0.03,10.54,-5.30,-6.61,-0.57,-1.49,0.43
6737,0.73,-0.05,-0.67,0.16,10.07,-3.38,-3.15,0.51,-0.22,0.51,0.67,0.06,-0.74,0.04,10.54,-5.30,-6.61,-0.57,-1.49,0.43
6757,0.73,-0.05,-0.67,0.16,9.53,-3.72,-1.46,0.51,-0.22,0.51,0.67,0.06,-0.74,0.04,10.54,-5.30,-6.61,0.36,-1.09,0.37
6777,0.71,-0.04,-0.69,0.16,9.53,-3.72,-1.46,0.51,-0.22,0.51,0.66,0.06,-0.75,0.04,10.54,-5.30,-6.61,0.36,-1.09,0.37
6797,0.71,-0.04,-0.69,0.16,8.84,-3.61,-2.34,0.51,-0.22,0.51,0.66,0.06,-0.75,0.04,10.54,-5.30,-6.61,0.06,-0.86,0.22
6817,0.68,-0.05,-0.71,0.15,8.84,-3.61,-2.34,0.51,-0.22,0.51,0.65,0.05,-0.76,0.03,10.54,-5.30,-6.61,0.06,-0.86,0.22
6837,0.68,-0.05,-0.71,0.15,8.72,-3.30,-1.04,0.51,-0.22,0.51,0.65,0.05,-0.76,0.03,10.54,-5.30,-6.61,-0.65,-0.68,0.12
6857,0.65,-0.05,-0.74,0.14,8.72,-3.30,-1.04,0.51,-0.22,0.51,0.64,0.05,-0.77,0.03,10.54,-5.30,-6.61,-0.65,-0.68,0.12
6877,0.65,-0.05,-0.74,0.14,9.02,-2.27,-1.16,0.51,-0.22,0.51,0.64,0.05,-0.77,0.03,9.16,1.71,-1.33,-0.65,-0.68,0.12
6897,0.62,-0.07,-0.77,0.13,9.02,-2.27,-1.16,0.51,-0.22,0.51,0.63,0.04,-0.78,0.02,9.16,1.71,-1.33,-0.65,-0.68,0.12
6917,0.62,-0.07,-0.77,0.13,8.42,-3.03,-1.77,0.51,-0.22,0.51,0.63,0.04,-0.78,0.02,9.16,1.71,-1.33,-0.41,-0.76,0.09
6937,0.59,-0.08,-0.80,0.12,8.42,-3.03,-1.77,0.51,-0.22,0.51,0.61,0.04,-0.79,0.02,9.16,1.71,-1.33,-0.41,-0.76,0.09
6957,0.59,-0.08,-0.80,0.12,7.91,-3.03,-2.23,0.51,-0.22,0.51,0.61,0.04,-0.79,0.02,9.20,-0.02,-1.75,-0.41,-0.76,0.09
6977,0.55,-0.09,-0.82,0.11,7.91,-3.03,-2.23,0.51,-0.22,0.51,0.60,0.03,-0.80,0.01,9.20,-0.02,-1.75,-0.41,-0.76,0.09
6997,0.55,-0.09,-0.82,0.11,9.18,-2.80,-1.88,0.51,-0.22,0.51,0.60,0.03,-0.80,0.01,9.20,-0.02,-1.75,-0.44,-0.91,0.05
7017,0.52,-0.10,-0.84,0.10,9.18,-2.80,-1.88,0.51,-0.22,0.51,0.58,0.03,-0.81,0.01,9.20,-0.02,-1.75,-0.44,-0.91,0.05
7037,0.52,-0.10,-0.84,0.10,9.26,-2.34,-0.62,0.51,-0.22,0.51,0.58,0.03,-0.81,0.01,9.20,-0.02,-1.75,-0.26,-1.17,0.07
7057,0.50,-0.11,-0.85,0.08,9.26,-2.34,-0.62,0.51,-0.22,0.51,0.56,0.03,-0.83,0.01,9.20,-0.02,-1.75,-0.26,-1.17,0.07
7077,0.50,-0.11,-0.85,0.08,10.25,-3.45,-0.66,0.51,-0.22,0.51,0.56,0.03,-0.83,0.01,9.74,0.21,-0.68,-0.26,-1.17,0.07
7097,0.49,-0.13,-0.86,0.06,10.25,-3.45,-0.66,0.51,-0.22,0.51,0.52,0.02,-0.85,0.00,9.74,0.21,-0.68,-0.26,-1.17,0.07
7117,0.49,-0.13,-0.86,0.06,11.94,-3.15,-1.42,0.51,-0.22,0.51,0.52,0.02,-0.85,0.00,9.74,0.21,-0.68,-0.13,-2.10,0.08
7137,0.49,-0.14,-0.86,0.04,11.94,-3.15,-1.42,0.51,-0.22,0.51,0.48,0.02,-0.88,0.00,9.74,0.21,-0.68,-0.13,-2.10,0.08
7157,0.49,-0.14,-0.86,0.04,11.94,-3.15,-1.42,-1.54,0.55,-0.21,0.48,0.02,-0.88,0.00,9.74,0.21,-0.68,-0.10,-2.56,0.15
7177,0.52,-0.14,-0.84,0.01,11.94,-3.15,-1.42,-1.54,0.55,-0.21,0.43,0.01,-0.90,-0.01,9.74,0.21,-0.68,-0.10,-2.56,0.15
7197,0.52,-0.14,-0.84,0.01,16.30,-4.26,7.54,-1.54,0.55,-0.21,0.43,0.01,-0.90,-0.01,9.74,0.21,-0.68,-0.78,-3.19,0.41
7217,0.56,-0.13,-0.82,-0.00,16.30,-4.26,7.54,-1.54,0.55,-0.21,0.36,-0.02,-0.93,-0.04,9.74,0.21,-0.68,-0.78,-3.19,0.41
7237,0.56,-0.13,-0.82,-0.00,12.86,-0.23,1.95,-1.54,0.55,-0.21,0.36,-0.02,-0.93,-0.04,9.74,0.21,-0.68,-2.43,-3.43,0.38
7257,0.61,-0.13,-0.78,-0.02,12.86,-0.23,1.95,-1.54,0.55,-0.21,0.31,-0.03,-0.95,-0.06,9.74,0.21,-0.68,-2.43,-3.43,0.38
7277,0.61,-0.13,-0.78,-0.02,14.58,-3.64,-9.39,-1.54,0.55,-0.21,0.31,-0.03,-0.95,-0.06,9.74,0.21,-0.68,-0.66,-2.97,0.10
7301,0.65,-0.14,-0.74,-0.02,14.58,-3.64,-9.39,-1.54,0.55,-0.21,0.29,-0.03,-0.96,-0.05,9.74,0.21,-0.68,-0.66,-2.97,0.10
7317,0.65,-0.14,-0.74,-0.02,12.55,-1.84,-7.36,-1.54,0.55,-0.21,0.29,-0.03,-0.96,-0.05,4.49,-1.66,-11.14,-0.66,-2.97,0.10
7337,0.70,-0.13,-0.70,-0.02,12.55,-1.84,-7.36,-1.54,0.55,-0.21,0.31,-0.05,-0.95,-0.05,4.49,-1.66,-11.14,-0.66,-2.97,0.10
7357,0.70,-0.13,-0.70,-0.02,10.87,-2.15,-5.98,-1.54,0.55,-0.21,0.31,-0.05,-0.95,-0.05,4.49,-1.66,-11.14,-0.28,1.24,0.62
7377,0.73,-0.14,-0.67,-0.01,10.87,-2.15,-5.98,-1.54,0.55,-0.21,0.36,-0.04,-0.93,-0.03,4.49,-1.66,-11.14,-0.28,1.24,0.62
7397,0.73,-0.14,-0.67,-0.01,6.65,-3.07,-4.95,-1.54,0.55,-0.21,0.36,-0.04,-0.93,-0.03,3.11,0.17,-5.38,-0.28,1.24,0.62
7417,0.76,-0.12,-0.64,0.01,6.65,-3.07,-4.95,-1.54,0.55,-0.21,0.44,-0.04,-0.90,-0.02,3.11,0.17,-5.38,-0.28,1.24,0.62
7437,0.76,-0.12,-0.64,0.01,5.35,-2.34,-4.22,-1.54,0.55,-0.21,0.44,-0.04,-0.90,-0.02,3.11,0.17,-5.38,0.96,4.32,0.00
7457,0.78,-0.10,-0.62,0.03,5.35,-2.34,-4.22,-1.54,0.55,-0.21,0.53,-0.02,-0.85,-0.02,3.11,0.17,-5.38,0.96,4.32,0.00
7477,0.78,-0.10,-0.62,0.03,2.94,-1.00,-5.91,-1.54,0.55,-0.21,0.53,-0.02,-0.85,-0.02,3.11,0.17,-5.38,0.50,5.11,-0.62
7497,0.78,-0.08,-0.62,0.06,2.94,-1.00,-5.91,-1.54,0.55,-0.21,0.61,-0.00,-0.79,-0.03,3.11,0.17,-5.38,0.50,5.11,-0.62
7517,0.78,-0.08,-0.62,0.06,4.09,0.38,-4.68,-1.54,0.55,-0.21,0.61,-0.00,-0.79,-0.03,9.39,1.29,-7.30,0.50,5.11,-0.62
7537,0.77,-0.06,-0.63,0.08,4.09,0.38,-4.68,-1.54,0.55,-0.21,0.70,0.01,-0.72,-0.04,9.39,1.29,-7.30,0.50,5.11,-0.62
7557,0.77,-0.06,-0.63,0.08,7.84,0.95,-0.70,-1.54,0.55,-0.21,0.70,0.01,-0.72,-0.04,9.39,1.29,-7.30,0.03,5.68,-0.79
7577,0.78,-0.05,-0.62,0.09,7.84,0.95,-0.70,-1.54,0.55,-0.21,0.76,0.02,-0.65,-0.05,9.39,1.29,-7.30,0.03,5.68,-0.79
7597,0.78,-0.05,-0.62,0.09,9.61,0.03,5.47,-1.54,0.55,-0.21,0.76,0.02,-0.65,-0.05,9.39,1.29,-7.30,-0.26,4.51,-0.57
7617,0.78,-0.06,-0.62,0.11,9.61,0.03,5.47,-1.54,0.55,-0.21,0.79,-0.00,-0.61,-0.07,9.39,1.29,-7.30,-0.26,4.51,-0.57
7637,0.78,-0.06,-0.62,0.11,11.90,0.22,7.70,-1.54,0.55,-0.21,0.79,-0.00,-0.61,-0.07,9.39,1.29,-7.30,-1.60,2.21,0.26
7657,0.77,-0.06,-0.62,0.12,11.90,0.22,7.70,-1.54,0.55,-0.21,0.79,-0.01,-0.61,-0.07,9.39,1.29,-7.30,-1.60,2.21,0.26
7677,0.77,-0.06,-0.62,0.12,11.90,0.22,7.70,-0.21,-0.10,0.64,0.79,-0.01,-0.61,-0.07,9.39,1.29,-7.30,-0.27,-0.91,0.55
7697,0.78,-0.06,-0.62,0.12,11.90,0.22,7.70,-0.21,-0.10,0.64,0.76,0.02,-0.65,-0.04,9.39,1.29,-7.30,-0.27,-0.91,0.55
7717,0.78,-0.06,-0.62,0.12,4.01,-1.77,-2.38,-0.21,-0.10,0.64,0.76,0.02,-0.65,-0.04,14.71,10.82,4.15,-0.27,-0.91,0.55
7737,0.77,-0.06,-0.63,0.13,4.01,-1.77,-2.38,-0.21,-0.10,0.64,0.74,0.06,-0.67,0.00,14.71,10.82,4.15,-0.27,-0.91,0.55
7757,0.77,-0.06,-0.63,0.13,20.86,-9.58,2.41,-0.21,-0.10,0.64,0.74,0.06,-0.67,0.00,14.71,10.82,4.15,3.05,-1.75,0.11
7777,0.76,-0.04,-0.64,0.15,20.86,-9.58,2.41,-0.21,-0.10,0.64,0.71,0.07,-0.70,0.02,14.71,10.82,4.15,3.05,-1.75,0.11
7797,0.76,-0.04,-0.64,0.15,4.54,-2.34,-9.62,-0.21,-0.10,0.64,0.71,0.07,-0.70,0.02,8.75,-4.73,-5.27,3.05,-1.75,0.11
7817,0.75,-0.06,-0.65,0.14,4.54,-2.34,-9.62,-0.21,-0.10,0.64,0.69,0.07,-0.72,0.03,8.75,-4.73,-5.27,3.05,-1.75,0.11
7837,0.75,-0.06,-0.65,0.14,7.61,-4.53,-1.69,-0.21,-0.10,0.64,0.69,0.07,-0.72,0.03,10.16,0.52,-5.66,3.05,-1.75,0.11
7857,0.73,-0.06,-0.67,0.14,7.61,-4.53,-1.69,-0.21,-0.10,0.64,0.67,0.07,-0.73,0.04,10.16,0.52,-5.66,3.05,-1.75,0.11
7877,0.73,-0.06,-0.67,0.14,8.57,-3.07,-1.69,-0.21,-0.10,0.64,0.67,0.07,-0.73,0.04,10.16,0.52,-5.66,0.56,-1.06,0.29
7897,0.70,-0.06,-0.69,0.14,8.57,-3.07,-1.69,-0.21,-0.10,0.64,0.66,0.07,-0.75,0.04,10.16,0.52,-5.66,0.56,-1.06,0.29
7917,0.70,-0.06,-0.69,0.14,8.57,-3.07,-1.69,0.01,-1.70,-0.07,0.66,0.07,-0.75,0.04,10.16,0.10,-2.63,0.56,-1.06,0.29
7937,0.68,-0.07,-0.72,0.14,8.57,-3.07,-1.69,0.01,-1.70,-0.07,0.65,0.05,-0.76,0.03,10.16,0.10,-2.63,0.56,-1.06,0.29
7957,0.68,-0.07,-0.72,0.14,8.38,-2.42,-2.38,0.01,-1.70,-0.07,0.65,0.05,-0.76,0.03,10.16,0.10,-2.63,-0.71,-0.72,0.15
7977,0.65,-0.08,-0.75,0.12,8.38,-2.42,-2.38,0.01,-1.70,-0.07,0.64,0.04,-0.77,0.02,10.16,0.10,-2.63,-0.71,-0.72,0.15
7997,0.65,-0.08,-0.75,0.12,9.07,-2.65,-1.50,0.01,-1.70,-0.07,0.64,0.04,-0.77,0.02,10.16,0.10,-2.63,-0.77,-0.66,0.17
8017,0.62,-0.09,-0.77,0.11,9.07,-2.65,-1.50,0.01,-1.70,-0.07,0.63,0.03,-0.78,0.01,10.16,0.10,-2.63,-0.77,-0.66,0.17
8037,0.62,-0.09,-0.77,0.11,9.07,-2.65,-1.50,-1.22,-1.97,0.09,0.63,0.03,-0.78,0.01,10.16,0.10,-2.63,-0.70,-0.73,0.13
8057,0.59,-0.10,-0.80,0.10,9.07,-2.65,-1.50,-1.22,-1.97,0.09,0.62,0.03,-0.79,0.00,10.16,0.10,-2.63,-0.70,-0.73,0.13
8077,0.59,-0.10,-0.80,0.10,8.72,-2.80,-1.88,-1.22,-1.97,0.09,0.62,0.03,-0.79,0.00,10.16,0.10,-2.63,-0.30,-0.92,0.10
8097,0.56,-0.11,-0.82,0.09,8.72,-2.80,-1.88,-1.22,-1.97,0.09,0.60,0.02,-0.80,-0.00,10.16,0.10,-2.63,-0.30,-0.92,0.10
8117,0.56,-0.11,-0.82,0.09,8.80,-3.38,-2.11,-1.22,-1.97,0.09,0.60,0.02,-0.80,-0.00,9.09,-0.75,-1.48,-0.30,-0.92,0.10
8137,0.53,-0.12,-0.84,0.08,8.80,-3.38,-2.11,-1.22,-1.97,0.09,0.58,0.02,-0.81,0.00,9.09,-0.75,-1.48,-0.30,-0.92,0.10
8157,0.53,-0.12,-0.84,0.08,9.48,-2.23,0.45,-1.22,-1.97,0.09,0.58,0.02,-0.81,0.00,9.09,-0.75,-1.48,0.05,-1.32,0.07
8177,0.51,-0.13,-0.85,0.07,9.48,-2.23,0.45,-1.22,-1.97,0.09,0.55,0.02,-0.83,0.00,9.09,-0.75,-1.48,0.05,-1.32,0.07
8197,0.51,-0.13,-0.85,0.07,10.48,-3.34,-0.43,-1.22,-1.97,0.09,0.55,0.02,-0.83,0.00,9.09,-0.75,-1.48,-0.07,-1.82,0.14
8217,0.50,-0.15,-0.85,0.04,10.48,-3.34,-0.43,-1.22,-1.97,0.09,0.51,0.02,-0.86,0.00,9.09,-0.75,-1.48,-0.07,-1.82,0.14
8237,0.50,-0.15,-0.85,0.04,12.24,-3.38,0.22,-1.22,-1.97,0.09,0.51,0.02,-0.86,0.00,11.46,1.63,-1.48,-0.07,-1.82,0.14
8257,0.51,-0.16,-0.84,0.02,12.24,-3.38,0.22,-1.22,-1.97,0.09,0.46,0.01,-0.89,0.00,11.46,1.63,-1.48,-0.07,-1.82,0.14
8277,0.51,-0.16,-0.84,0.02,15.27,-4.83,3.06,-1.22,-1.97,0.09,0.46,0.01,-0.89,0.00,11.46,1.63,-1.48,-0.25,-2.83,0.43
8297,0.54,-0.16,-0.83,0.00,15.27,-4.83,3.06,-1.22,-1.97,0.09,0.40,-0.01,-0.91,-0.01,11.46,1.63,-1.48,-0.25,-2.83,0.43
8317,0.54,-0.16,-0.83,0.00,18.22,-3.64,5.82,-1.22,-1.97,0.09,0.40,-0.01,-0.91,-0.01,18.35,5.11,4.46,-0.25,-2.83,0.43
8337,0.59,-0.14,-0.80,-0.01,18.22,-3.64,5.82,-1.22,-1.97,0.09,0.34,-0.04,-0.94,-0.05,18.35,5.11,4.46,-0.25,-2.83,0.43
8357,0.59,-0.14,-0.80,-0.01,13.51,-0.46,0.84,-1.22,-1.97,0.09,0.34,-0.04,-0.94,-0.05,18.35,5.11,4.46,-2.63,-3.38,0.15
8377,0.63,-0.14,-0.77,-0.02,13.51,-0.46,0.84,-1.22,-1.97,0.09,0.29,-0.04,-0.95,-0.06,18.35,5.11,4.46,-2.63,-3.38,0.15
8397,0.63,-0.14,-0.77,-0.02,16.27,-5.18,-9.31,-1.22,-1.97,0.09,0.29,-0.04,-0.95,-0.06,18.35,5.11,4.46,0.12,-2.32,-0.06
8417,0.67,-0.13,-0.73,-0.02,16.27,-5.18,-9.31,-1.22,-1.97,0.09,0.29,-0.04,-0.96,-0.06,18.35,5.11,4.46,0.12,-2.32,-0.06
8437,0.67,-0.13,-0.73,-0.02,11.74,-4.11,-7.59,-1.22,-1.97,0.09,0.29,-0.04,-0.96,-0.06,18.35,5.11,4.46,-0.85,-0.03,0.27
8457,0.71,-0.12,-0.69,-0.01,11.74,-4.11,-7.59,-1.22,-1.97,0.09,0.31,-0.04,-0.95,-0.05,18.35,5.11,4.46,-0.85,-0.03,0.27
8477,0.71,-0.12,-0.69,-0.01,10.55,-2.42,-5.91,-1.22,-1.97,0.09,0.31,-0.04,-0.95,-0.05,4.10,-3.27,-3.20,-0.85,-0.03,0.27
8497,0.74,-0.12,-0.66,0.00,10.55,-2.42,-5.91,-1.22,-1.97,0.09,0.38,-0.03,-0.93,-0.02,4.10,-3.27,-3.20,-0.85,-0.03,0.27
8517,0.74,-0.12,-0.66,0.00,6.00,-3.07,-4.83,-1.22,-1.97,0.09,0.38,-0.03,-0.93,-0.02,4.10,-3.27,-3.20,1.40,3.44,-0.22
8537,0.77,-0.10,-0.64,0.03,6.00,-3.07,-4.83,-1.22,-1.97,0.09,0.45,-0.01,-0.89,-0.02,4.10,-3.27,-3.20,1.40,3.44,-0.22
8557,0.77,-0.10,-0.64,0.03,4.81,-1.77,-4.91,-1.22,-1.97,0.09,0.45,-0.01,-0.89,-0.02,3.95,1.51,-4.47,1.40,3.44,-0.22
8577,0.78,-0.08,-0.62,0.06,4.81,-1.77,-4.91,-1.22,-1.97,0.09,0.54,0.01,-0.84,-0.01,3.95,1.51,-4.47,1.40,3.44,-0.22
8597,0.78,-0.08,-0.62,0.06,2.90,-1.31,-5.29,-1.22,-1.97,0.09,0.54,0.01,-0.84,-0.01,3.95,1.51,-4.47,0.83,5.00,-0.71
8617,0.77,-0.05,-0.63,0.09,2.90,-1.31,-5.29,-1.22,-1.97,0.09,0.62,0.02,-0.78,-0.02,3.95,1.51,-4.47,0.83,5.00,-0.71
8637,0.77,-0.05,-0.63,0.09,2.90,-1.31,-5.29,1.62,-0.46,0.38,0.62,0.02,-0.78,-0.02,10.32,-0.21,-7.61,0.83,5.00,-0.71
8657,0.77,-0.04,-0.63,0.11,2.90,-1.31,-5.29,1.62,-0.46,0.38,0.70,0.03,-0.71,-0.03,10.32,-0.21,-7.61,0.83,5.00,-0.71
8677,0.77,-0.04,-0.63,0.11,8.61,0.61,-0.96,1.62,-0.46,0.38,0.70,0.03,-0.71,-0.03,10.32,-0.21,-7.61,-0.14,5.51,-0.55
8697,0.77,-0.04,-0.63,0.12,8.61,0.61,-0.96,1.62,-0.46,0.38,0.77,0.03,-0.64,-0.04,10.32,-0.21,-7.61,-0.14,5.51,-0.55
8717,0.77,-0.04,-0.63,0.12,10.59,0.38,6.66,1.62,-0.46,0.38,0.77,0.03,-0.64,-0.04,11.88,1.90,-6.34,-0.14,5.51,-0.55
8737,0.76,-0.04,-0.63,0.14,10.59,0.38,6.66,1.62,-0.46,0.38,0.80,0.01,-0.60,-0.05,11.88,1.90,-6.34,-0.14,5.51,-0.55
8757,0.76,-0.04,-0.63,0.14,12.28,-0.04,8.31,1.62,-0.46,0.38,0.80,0.01,-0.60,-0.05,11.88,1.90,-6.34,-1.09,2.16,0.30
8777,0.76,-0.06,-0.63,0.14,12.28,-0.04,8.31,1.62,-0.46,0.38,0.79,-0.00,-0.61,-0.05,11.88,1.90,-6.34,-1.09,2.16,0.30
8797,0.76,-0.06,-0.63,0.14,11.86,-1.20,6.20,1.62,-0.46,0.38,0.79,-0.00,-0.61,-0.05,4.99,0.55,-5.84,-1.09,2.16,0.30
8817,0.76,-0.06,-0.63,0.15,11.86,-1.20,6.20,1.62,-0.46,0.38,0.77,0.03,-0.64,-0.02,4.99,0.55,-5.84,-1.09,2.16,0.30
8837,0.76,-0.06,-0.63,0.15,10.13,-3.07,1.37,1.62,-0.46,0.38,0.77,0.03,-0.64,-0.02,4.99,0.55,-5.84,2.33,-1.74,-0.18
8857,0.76,-0.06,-0.63,0.15,10.13,-3.07,1.37,1.62,-0.46,0.38,0.74,0.06,-0.67,0.01,4.99,0.55,-5.84,2.33,-1.74,-0.18
8877,0.76,-0.06,-0.63,0.15,10.13,-3.07,1.37,0.11,0.29,0.03,0.74,0.06,-0.67,0.01,4.99,0.55,-5.84,1.56,-2.19,0.33
8897,0.75,-0.03,-0.64,0.16,10.13,-3.07,1.37,0.11,0.29,0.03,0.71,0.07,-0.70,0.03,4.99,0.55,-5.84,1.56,-2.19,0.33
8917,0.75,-0.03,-0.64,0.16,2.63,1.68,-7.82,0.11,0.29,0.03,0.71,0.07,-0.70,0.03,9.93,-5.15,-4.39,1.56,-2.19,0.33
8937,0.74,-0.06,-0.66,0.15,2.63,1.68,-7.82,0.11,0.29,0.03,0.69,0.07,-0.72,0.04,9.93,-5.15,-4.39,1.56,-2.19,0.33
8957,0.74,-0.06,-0.66,0.15,10.83,-3.03,-4.56,0.11,0.29,0.03,0.69,0.07,-0.72,0.04,9.93,-5.15,-4.39,0.10,-1.50,0.49
8977,0.72,-0.06,-0.67,0.15,10.83,-3.03,-4.56,0.11,0.29,0.03,0.67,0.07,-0.74,0.04,9.93,-5.15,-4.39,0.10,-1.50,0.49
8997,0.72,-0.06,-0.67,0.15,7.45,-3.57,-1.80,0.11,0.29,0.03,0.67,0.07,-0.74,0.04,9.28,-1.97,-2.98,0.10,-1.50,0.49
9017,0.70,-0.05,-0.69,0.16,7.45,-3.57,-1.80,0.11,0.29,0.03,0.66,0.07,-0.75,0.04,9.28,-1.97,-2.98,0.10,-1.50,0.49
9037,0.70,-0.05,-0.69,0.16,8.56,-3.95,-3.15,0.11,0.29,0.03,0.66,0.07,-0.75,0.04,9.28,-1.97,-2.98,-0.22,-0.94,0.25
9057,0.68,-0.06,-0.72,0.15,8.56,-3.95,-3.15,0.11,0.29,0.03,0.64,0.05,-0.76,0.03,9.28,-1.97,-2.98,-0.22,-0.94,0.25
9077,0.68,-0.06,-0.72,0.15,8.56,-3.95,-3.15,-0.77,-1.63,0.16,0.64,0.05,-0.76,0.03,9.96,-0.36,-2.29,-0.22,-0.94,0.25
9097,0.65,-0.07,-0.74,0.14,8.56,-3.95,-3.15,-0.77,-1.63,0.16,0.63,0.04,-0.77,0.03,9.96,-0.36,-2.29,-0.22,-0.94,0.25
9117,0.65,-0.07,-0.74,0.14,8.64,-3.91,-1.69,-0.77,-1.63,0.16,0.63,0.04,-0.77,0.03,9.96,-0.36,-2.29,-0.59,-0.69,0.11
9137,0.62,-0.09,-0.77,0.12,8.64,-3.91,-1.69,-0.77,-1.63,0.16,0.62,0.03,-0.78,0.02,9.96,-0.36,-2.29,-0.59,-0.69,0.11
9157,0.62,-0.09,-0.77,0.12,8.52,-4.49,-1.54,-0.77,-1.63,0.16,0.62,0.03,-0.78,0.02,9.58,-1.51,-1.37,-0.59,-0.69,0.11
9177,0.59,-0.10,-0.79,0.11,8.52,-4.49,-1.54,-0.77,-1.63,0.16,0.61,0.03,-0.79,0.01,9.58,-1.51,-1.37,-0.59,-0.69,0.11
9197,0.59,-0.10,-0.79,0.11,8.45,-2.88,-1.46,-0.77,-1.63,0.16,0.61,0.03,-0.79,0.01,9.58,-1.51,-1.37,-0.19,-0.79,0.04
9217,0.56,-0.11,-0.82,0.10,8.45,-2.88,-1.46,-0.77,-1.63,0.16,0.59,0.03,-0.80,0.01,9.58,-1.51,-1.37,-0.19,-0.79,0.04
9237,0.56,-0.11,-0.82,0.10,9.41,-3.57,-1.04,-0.77,-1.63,0.16,0.59,0.03,-0.80,0.01,9.58,-1.51,-1.37,-0.34,-1.01,0.06
9257,0.52,-0.12,-0.84,0.09,9.41,-3.57,-1.04,-0.77,-1.63,0.16,0.57,0.03,-0.82,0.01,9.58,-1.51,-1.37,-0.34,-1.01,0.06
9277,0.52,-0.12,-0.84,0.09,9.37,-2.73,-1.19,-0.77,-1.63,0.16,0.57,0.03,-0.82,0.01,9.51,0.10,-1.10,-0.34,-1.01,0.06
9297,0.50,-0.13,-0.85,0.07,9.37,-2.73,-1.19,-0.77,-1.63,0.16,0.55,0.02,-0.84,0.01,9.51,0.10,-1.10,-0.34,-1.01,0.06
9317,0.50,-0.13,-0.85,0.07,10.03,-2.80,0.15,-0.77,-1.63,0.16,0.55,0.02,-0.84,0.01,9.32,0.02,-0.60,-0.34,-1.01,0.06
9337,0.50,-0.14,-0.85,0.05,10.03,-2.80,0.15,-0.77,-1.63,0.16,0.51,0.02,-0.86,0.01,9.32,0.02,-0.60,-0.34,-1.01,0.06
9357,0.50,-0.14,-0.85,0.05,12.82,-4.07,0.03,-0.77,-1.63,0.16,0.51,0.02,-0.86,0.01,9.32,0.02,-0.60,0.18,-2.26,0.16
9377,0.51,-0.15,-0.85,0.03,12.82,-4.07,0.03,-0.77,-1.63,0.16,0.46,0.02,-0.89,0.01,9.32,0.02,-0.60,0.18,-2.26,0.16
9397,0.51,-0.15,-0.85,0.03,11.09,-3.53,3.90,-0.77,-1.63,0.16,0.46,0.02,-0.89,0.01,13.03,1.48,-1.90,0.18,-2.26,0.16
9417,0.53,-0.16,-0.83,0.01,11.09,-3.53,3.90,-0.77,-1.63,0.16,0.40,0.00,-0.92,0.00,13.03,1.48,-1.90,0.18,-2.26,0.16
9437,0.53,-0.16,-0.83,0.01,11.09,-3.53,3.90,-0.61,1.48,-0.36,0.40,0.00,-0.92,0.00,13.03,1.48,-1.90,-0.90,-3.40,0.59
9457,0.57,-0.15,-0.81,-0.01,11.09,-3.53,3.90,-0.61,1.48,-0.36,0.34,-0.02,-0.94,-0.04,13.03,1.48,-1.90,-0.90,-3.40,0.59
9477,0.57,-0.15,-0.81,-0.01,14.43,-0.77,1.11,-0.61,1.48,-0.36,0.34,-0.02,-0.94,-0.04,18.01,4.85,2.00,-0.90,-3.40,0.59
9497,0.61,-0.15,-0.78,-0.03,14.43,-0.77,1.11,-0.61,1.48,-0.36,0.28,-0.04,-0.96,-0.06,18.01,4.85,2.00,-0.90,-3.40,0.59
9517,0.61,-0.15,-0.78,-0.03,16.15,-3.49,-9.05,-0.61,1.48,-0.36,0.28,-0.04,-0.96,-0.06,18.01,4.85,2.00,-0.65,-2.79,0.08
9537,0.65,-0.15,-0.74,-0.03,16.15,-3.49,-9.05,-0.61,1.48,-0.36,0.27,-0.04,-0.96,-0.06,18.01,4.85,2.00,-0.65,-2.79,0.08
9557,0.65,-0.15,-0.74,-0.03,12.25,-3.95,-7.44,-0.61,1.48,-0.36,0.27,-0.04,-0.96,-0.06,5.18,-2.32,-9.06,-0.65,-2.79,0.08
9577,0.69,-0.14,-0.71,-0.02,12.25,-3.95,-7.44,-0.61,1.48,-0.36,0.30,-0.05,-0.95,-0.05,5.18,-2.32,-9.06,-0.65,-2.79,0.08
9597,0.69,-0.14,-0.71,-0.02,10.07,-1.69,-5.56,-0.61,1.48,-0.36,0.30,-0.05,-0.95,-0.05,5.18,-2.32,-9.06,1.12,1.55,0.62
9617,0.73,-0.14,-0.67,-0.02,10.07,-1.69,-5.56,-0.61,1.48,-0.36,0.35,-0.04,-0.93,-0.02,5.18,-2.32,-9.06,1.12,1.55,0.62
9637,0.73,-0.14,-0.67,-0.02,6.80,-2.73,-4.75,-0.61,1.48,-0.36,0.35,-0.04,-0.93,-0.02,3.41,0.44,-4.43,1.12,1.55,0.62
9657,0.75,-0.13,-0.65,0.00,6.80,-2.73,-4.75,-0.61,1.48,-0.36,0.43,-0.04,-0.90,-0.01,3.41,0.44,-4.43,1.12,1.55,0.62
9677,0.75,-0.13,-0.65,0.00,4.81,-2.19,-4.64,-0.61,1.48,-0.36,0.43,-0.04,-0.90,-0.01,4.80,0.94,-4.74,1.12,1.55,0.62
9697,0.77,-0.11,-0.63,0.03,4.81,-2.19,-4.64,-0.61,1.48,-0.36,0.52,-0.02,-0.85,-0.01,4.80,0.94,-4.74,1.12,1.55,0.62
9717,0.77,-0.11,-0.63,0.03,3.43,-1.35,-5.83,-0.61,1.48,-0.36,0.52,-0.02,-0.85,-0.01,4.95,1.17,-4.28,1.12,1.55,0.62
9737,0.77,-0.08,-0.63,0.06,3.43,-1.35,-5.83,-0.61,1.48,-0.36,0.61,-0.01,-0.79,-0.03,4.95,1.17,-4.28,1.12,1.55,0.62
9757,0.77,-0.08,-0.63,0.06,3.93,0.64,-4.02,-0.61,1.48,-0.36,0.61,-0.01,-0.79,-0.03,10.77,1.25,-7.50,1.12,1.55,0.62
9777,0.77,-0.07,-0.63,0.07,3.93,0.64,-4.02,-0.61,1.48,-0.36,0.69,-0.00,-0.72,-0.05,10.77,1.25,-7.50,1.12,1.55,0.62
9797,0.77,-0.07,-0.63,0.07,7.15,-0.23,-0.39,-0.61,1.48,-0.36,0.69,-0.00,-0.72,-0.05,12.41,-1.28,-8.95,1.12,1.55,0.62
9817,0.77,-0.07,-0.63,0.08,7.15,-0.23,-0.39,-0.61,1.48,-0.36,0.76,0.00,-0.65,-0.07,12.41,-1.28,-8.95,1.12,1.55,0.62
9837,0.77,-0.07,-0.63,0.08,10.48,-0.70,5.20,-0.61,1.48,-0.36,0.76,0.00,-0.65,-0.07,10.92,2.16,-7.27,1.12,1.55,0.62
9857,0.77,-0.07,-0.63,0.10,10.48,-0.70,5.20,-0.61,1.48,-0.36,0.78,-0.01,-0.61,-0.08,10.92,2.16,-7.27,1.12,1.55,0.62
9877,0.77,-0.07,-0.63,0.10,11.25,-0.23,8.34,-0.61,1.48,-0.36,0.78,-0.01,-0.61,-0.08,10.92,2.16,-7.27,-1.04,1.95,0.13
9897,0.77,-0.07,-0.63,0.11,11.25,-0.23,8.34,-0.61,1.48,-0.36,0.77,-0.01,-0.63,-0.07,10.92,2.16,-7.27,-1.04,1.95,0.13
9917,0.77,-0.07,-0.63,0.11,11.25,-0.23,8.34,0.15,0.06,0.20,0.77,-0.01,-0.63,-0.07,5.71,-0.67,-6.73,-1.04,1.95,0.13
9937,0.77,-0.07,-0.62,0.11,11.25,-0.23,8.34,0.15,0.06,0.20,0.75,0.03,-0.66,-0.04,5.71,-0.67,-6.73,-1.04,1.95,0.13
9957,0.77,-0.07,-0.62,0.11,0.68,-1.54,-4.30,0.15,0.06,0.20,0.75,0.03,-0.66,-0.04,5.71,-0.67,-6.73,2.80,-1.56,-0.12
9977,0.76,-0.07,-0.64,0.12,0.68,-1.54,-4.30,0.15,0.06,0.20,0.73,0.07,-0.68,0.00,5.71,-0.67,-6.73,2.80,-1.56,-0.12
9997,0.76,-0.07,-0.64,0.12,19.11,-1.77,1.26,0.15,0.06,0.20,0.73,0.07,-0.68,0.00,13.56,4.16,-6.08,2.80,-1.56,-0.12
10017,0.75,-0.05,-0.65,0.13,19.11,-1.77,1.26,0.15,0.06,0.20,0.70,0.08,-0.71,0.02,13.56,4.16,-6.08,2.80,-1.56,-0.12
10037,0.75,-0.05,-0.65,0.13,4.81,2.60,-12.07,0.15,0.06,0.20,0.70,0.08,-0.71,0.02,8.78,-1.02,-5.35,2.80,-1.56,-0.12
10057,0.74,-0.07,-0.66,0.12,4.81,2.60,-12.07,0.15,0.06,0.20,0.67,0.06,-0.74,0.02,8.78,-1.02,-5.35,2.80,-1.56,-0.12
10077,0.74,-0.07,-0.66,0.12,9.95,-6.06,-5.29,0.15,0.06,0.20,0.67,0.06,-0.74,0.02,11.46,-0.55,-4.55,2.80,-1.56,-0.12
10097,0.72,-0.08,-0.68,0.12,9.95,-6.06,-5.29,0.15,0.06,0.20,0.65,0.07,-0.75,0.03,11.46,-0.55,-4.55,2.80,-1.56,-0.12
10117,0.72,-0.08,-0.68,0.12,9.02,-2.07,-2.15,0.15,0.06,0.20,0.65,0.07,-0.75,0.03,9.05,-1.55,-3.47,2.80,-1.56,-0.12
10137,0.70,-0.08,-0.70,0.12,9.02,-2.07,-2.15,0.15,0.06,0.20,0.64,0.06,-0.77,0.03,9.05,-1.55,-3.47,2.80,-1.56,-0.12
10157,0.70,-0.08,-0.70,0.12,9.14,-2.99,-2.84,0.15,0.06,0.20,0.64,0.06,-0.77,0.03,9.93,-0.67,-2.98,2.80,-1.56,-0.12
10177,0.67,-0.08,-0.73,0.11,9.14,-2.99,-2.84,0.15,0.06,0.20,0.63,0.05,-0.78,0.02,9.93,-0.67,-2.98,2.80,-1.56,-0.12
10197,0.67,-0.08,-0.73,0.11,8.41,-3.84,-2.27,0.15,0.06,0.20,0.63,0.05,-0.78,0.02,9.93,-0.67,-2.98,-0.28,-0.68,0.06
10217,0.64,-0.09,-0.75,0.10,8.41,-3.84,-2.27,0.15,0.06,0.20,0.62,0.05,-0.78,0.02,9.93,-0.67,-2.98,-0.28,-0.68,0.06
10237,0.64,-0.09,-0.75,0.10,8.84,-3.15,-1.08,0.15,0.06,0.20,0.62,0.05,-0.78,0.02,8.97,0.59,-1.56,-0.28,-0.68,0.06
10257,0.61,-0.10,-0.78,0.10,8.84,-3.15,-1.08,0.15,0.06,0.20,0.61,0.04,-0.79,0.01,8.97,0.59,-1.56,-0.28,-0.68,0.06
10277,0.61,-0.10,-0.78,0.10,9.68,-1.77,-1.84,0.15,0.06,0.20,0.61,0.04,-0.79,0.01,8.97,0.59,-1.56,-0.11,-0.78,0.03
10297,0.57,-0.11,-0.81,0.09,9.68,-1.77,-1.84,0.15,0.06,0.20,0.59,0.04,-0.80,0.01,8.97,0.59,-1.56,-0.11,-0.78,0.03
10317,0.57,-0.11,-0.81,0.09,8.61,-2.73,-1.73,0.15,0.06,0.20,0.59,0.04,-0.80,0.01,9.01,-0.25,-1.94,-0.11,-0.78,0.03
10337,0.54,-0.12,-0.83,0.07,8.61,-2.73,-1.73,0.15,0.06,0.20,0.58,0.03,-0.82,0.00,9.01,-0.25,-1.94,-0.11,-0.78,0.03
10357,0.54,-0.12,-0.83,0.07,9.75,-4.14,-1.96,0.15,0.06,0.20,0.58,0.03,-0.82,0.00,9.01,-0.25,-1.94,-0.36,-1.08,0.10
10377,0.51,-0.13,-0.85,0.06,9.75,-4.14,-1.96,0.15,0.06,0.20,0.55,0.03,-0.83,-0.00,9.01,-0.25,-1.94,-0.36,-1.08,0.10
10397,0.51,-0.13,-0.85,0.06,9.75,-4.14,-1.96,-1.17,-0.86,0.17,0.55,0.03,-0.83,-0.00,9.55,0.79,-0.18,-0.36,-1.08,0.10
10417,0.50,-0.14,-0.86,0.04,9.75,-4.14,-1.96,-1.17,-0.86,0.17,0.52,0.02,-0.86,-0.01,9.55,0.79,-0.18,-0.36,-1.08,0.10
10437,0.50,-0.14,-0.86,0.04,11.82,-3.26,0.38,-1.17,-0.86,0.17,0.52,0.02,-0.86,-0.01,9.55,0.79,-0.18,-0.13,-2.15,0.12
10457,0.50,-0.16,-0.85,0.02,11.82,-3.26,0.38,-1.17,-0.86,0.17,0.47,0.02,-0.88,-0.01,9.55,0.79,-0.18,-0.13,-2.15,0.12
10477,0.50,-0.16,-0.85,0.02,14.01,-5.91,2.37,-1.17,-0.86,0.17,0.47,0.02,-0.88,-0.01,12.76,1.59,-1.10,-0.13,-2.15,0.12
10497,0.52,-0.16,-0.84,-0.00,14.01,-5.91,2.37,-1.17,-0.86,0.17,0.41,0.00,-0.91,-0.01,12.76,1.59,-1.10,-0.13,-2.15,0.12
10517,0.52,-0.16,-0.84,-0.00,16.30,-6.67,4.90,-1.17,-0.86,0.17,0.41,0.00,-0.91,-0.01,19.20,2.59,4.07,-0.13,-2.15,0.12
10537,0.57,-0.15,-0.81,-0.02,16.30,-6.67,4.90,-1.17,-0.86,0.17,0.35,-0.02,-0.93,-0.05,19.20,2.59,4.07,-0.13,-2.15,0.12
10557,0.57,-0.15,-0.81,-0.02,14.43,-0.70,2.48,-1.17,-0.86,0.17,0.35,-0.02,-0.93,-0.05,16.06,3.54,0.01,-0.13,-2.15,0.12
10577,0.61,-0.15,-0.78,-0.04,14.43,-0.70,2.48,-1.17,-0.86,0.17,0.30,-0.04,-0.95,-0.07,16.06,3.54,0.01,-0.13,-2.15,0.12
10597,0.61,-0.15,-0.78,-0.04,14.62,-2.30,-9.16,-1.17,-0.86,0.17,0.30,-0.04,-0.95,-0.07,16.06,3.54,0.01,-1.17,-2.77,0.39
10617,0.65,-0.16,-0.74,-0.04,14.62,-2.30,-9.16,-1.17,-0.86,0.17,0.29,-0.06,-0.95,-0.08,16.06,3.54,0.01,-1.17,-2.77,0.39
10637,0.65,-0.16,-0.74,-0.04,12.40,-2.11,-5.75,-1.17,-0.86,0.17,0.29,-0.06,-0.95,-0.08,5.98,-2.51,-8.22,-1.17,-2.77,0.39
10657,0.69,-0.16,-0.70,-0.03,12.40,-2.11,-5.75,-1.17,-0.86,0.17,0.31,-0.07,-0.95,-0.06,5.98,-2.51,-8.22,-1.17,-2.77,0.39
10677,0.69,-0.16,-0.70,-0.03,10.37,-1.58,-5.68,-1.17,-0.86,0.17,0.31,-0.07,-0.95,-0.06,5.41,-3.05,-3.82,-1.17,-2.77,0.39
10697,0.73,-0.16,-0.67,-0.03,10.37,-1.58,-5.68,-1.17,-0.86,0.17,0.37,-0.06,-0.92,-0.03,5.41,-3.05,-3.82,-1.17,-2.77,0.39
10717,0.73,-0.16,-0.67,-0.03,7.04,-2.69,-4.45,-1.17,-0.86,0.17,0.37,-0.06,-0.92,-0.03,5.41,-3.05,-3.82,1.18,3.26,0.49
10737,0.75,-0.15,-0.64,-0.01,7.04,-2.69,-4.45,-1.17,-0.86,0.17,0.45,-0.06,-0.89,-0.03,5.41,-3.05,-3.82,1.18,3.26,0.49
10757,0.75,-0.15,-0.64,-0.01,5.80,-3.11,-4.11,-1.17,-0.86,0.17,0.45,-0.06,-0.89,-0.03,5.83,2.86,-4.77,1.18,3.26,0.49
10777,0.77,-0.13,-0.63,0.02,5.80,-3.11,-4.11,-1.17,-0.86,0.17,0.54,-0.05,-0.84,-0.03,5.83,2.86,-4.77,1.18,3.26,0.49
10797,0.77,-0.13,-0.63,0.02,3.82,-2.11,-5.45,-1.17,-0.86,0.17,0.54,-0.05,-0.84,-0.03,6.25,0.82,-5.27,1.18,3.26,0.49
10817,0.77,-0.10,-0.62,0.05,3.82,-2.11,-5.45,-1.17,-0.86,0.17,0.62,-0.03,-0.78,-0.05,6.25,0.82,-5.27,1.18,3.26,0.49
10837,0.77,-0.10,-0.62,0.05,3.82,-2.11,-5.45,2.08,-0.05,0.23,0.62,-0.03,-0.78,-0.05,6.25,0.82,-5.27,-0.40,5.35,-0.90
10857,0.77,-0.09,-0.63,0.07,3.82,-2.11,-5.45,2.08,-0.05,0.23,0.70,-0.02,-0.71,-0.07,6.25,0.82,-5.27,-0.40,5.35,-0.90
10877,0.77,-0.09,-0.63,0.07,7.72,1.53,-0.35,2.08,-0.05,0.23,0.70,-0.02,-0.71,-0.07,12.27,0.94,-8.91,-0.40,5.35,-0.90
10897,0.77,-0.08,-0.62,0.08,7.72,1.53,-0.35,2.08,-0.05,0.23,0.76,0.00,-0.65,-0.07,12.27,0.94,-8.91,-0.40,5.35,-0.90
10917,0.77,-0.08,-0.62,0.08,9.41,0.80,6.09,2.08,-0.05,0.23,0.76,0.00,-0.65,-0.07,9.66,-0.29,-6.84,-0.40,5.35,-0.90
10937,0.77,-0.07,-0.63,0.09,9.41,0.80,6.09,2.08,-0.05,0.23,0.79,0.01,-0.61,-0.08,9.66,-0.29,-6.84,-0.40,5.35,-0.90
10957,0.77,-0.07,-0.63,0.09,11.13,-0.54,7.96,2.08,-0.05,0.23,0.79,0.01,-0.61,-0.08,4.60,-0.40,-7.03,-0.40,5.35,-0.90
10977,0.77,-0.07,-0.63,0.10,11.13,-0.54,7.96,2.08,-0.05,0.23,0.78,0.01,-0.63,-0.07,4.60,-0.40,-7.03,-0.40,5.35,-0.90
10997,0.77,-0.07,-0.63,0.10,11.94,-0.12,6.24,2.08,-0.05,0.23,0.78,0.01,-0.63,-0.07,4.60,-0.40,-7.03,0.38,-1.34,0.27
11017,0.78,-0.07,-0.61,0.11,11.94,-0.12,6.24,2.08,-0.05,0.23,0.75,0.02,-0.66,-0.05,4.60,-0.40,-7.03,0.38,-1.34,0.27
11037,0.78,-0.07,-0.61,0.11,-4.65,2.21,-8.01,2.08,-0.05,0.23,0.75,0.02,-0.66,-0.05,16.98,11.47,8.98,0.38,-1.34,0.27
11057,0.77,-0.08,-0.63,0.10,-4.65,2.21,-8.01,2.08,-0.05,0.23,0.73,0.04,-0.69,-0.03,16.98,11.47,8.98,0.38,-1.34,0.27
11077,0.77,-0.08,-0.63,0.10,14.78,-6.33,-0.43,2.08,-0.05,0.23,0.73,0.04,-0.69,-0.03,16.17,0.82,-3.93,0.38,-1.34,0.27
11097,0.75,-0.09,-0.64,0.10,14.78,-6.33,-0.43,2.08,-0.05,0.23,0.70,0.04,-0.71,-0.01,16.17,0.82,-3.93,0.38,-1.34,0.27
11117,0.75,-0.09,-0.64,0.10,6.12,2.83,-8.93,2.08,-0.05,0.23,0.70,0.04,-0.71,-0.01,8.25,1.17,-4.62,0.38,-1.34,0.27
11137,0.75,-0.12,-0.65,0.09,6.12,2.83,-8.93,2.08,-0.05,0.23,0.68,0.04,-0.74,-0.00,8.25,1.17,-4.62,0.38,-1.34,0.27
11157,0.75,-0.12,-0.65,0.09,8.64,-10.32,-3.87,2.08,-0.05,0.23,0.68,0.04,-0.74,-0.00,8.25,1.17,-4.62,0.18,-1.59,0.51
11177,0.73,-0.11,-0.67,0.10,8.64,-10.32,-3.87,2.08,-0.05,0.23,0.66,0.04,-0.75,0.01,8.25,1.17,-4.62,0.18,-1.59,0.51
11197,0.73,-0.11,-0.67,0.10,9.33,-0.89,-2.04,2.08,-0.05,0.23,0.66,0.04,-0.75,0.01,8.67,0.71,-3.24,0.18,-1.59,0.51
11217,0.71,-0.10,-0.69,0.10,9.33,-0.89,-2.04,2.08,-0.05,0.23,0.64,0.04,-0.77,0.01,8.67,0.71,-3.24,0.18,-1.59,0.51
11237,0.71,-0.10,-0.69,0.10,9.49,-2.23,-3.26,2.08,-0.05,0.23,0.64,0.04,-0.77,0.01,10.00,-0.48,-3.55,0.18,-1.59,0.51
11257,0.69,-0.11,-0.71,0.09,9.49,-2.23,-3.26,2.08,-0.05,0.23,0.63,0.02,-0.78,0.00,10.00,-0.48,-3.55,0.18,-1.59,0.51
11277,0.69,-0.11,-0.71,0.09,9.18,-1.04,-1.96,2.08,-0.05,0.23,0.63,0.02,-0.78,0.00,9.66,1.09,-3.05,0.18,-1.59,0.51
11297,0.66,-0.12,-0.73,0.08,9.18,-1.04,-1.96,2.08,-0.05,0.23,0.62,0.01,-0.78,-0.01,9.66,1.09,-3.05,0.18,-1.59,0.51
11317,0.66,-0.12,-0.73,0.08,9.18,-1.04,-1.96,-1.34,-1.78,-0.03,0.62,0.01,-0.78,-0.01,9.31,-0.75,-1.71,0.18,-1.59,0.51
11337,0.63,-0.13,-0.76,0.07,9.18,-1.04,-1.96,-1.34,-1.78,-0.03,0.61,0.00,-0.79,-0.02,9.31,-0.75,-1.71,0.18,-1.59,0.51
11357,0.63,-0.13,-0.76,0.07,8.18,-4.76,-1.69,-1.34,-1.78,-0.03,0.61,0.00,-0.79,-0.02,9.31,-0.75,-1.71,-0.53,-0.60,0.05
11377,0.60,-0.14,-0.78,0.06,8.18,-4.76,-1.69,-1.34,-1.78,-0.03,0.60,0.00,-0.80,-0.02,9.31,-0.75,-1.71,-0.53,-0.60,0.05
11397,0.60,-0.14,-0.78,0.06,8.72,-2.27,-1.57,-1.34,-1.78,-0.03,0.60,0.00,-0.80,-0.02,9.13,1.17,-1.37,-0.53,-0.60,0.05
11417,0.57,-0.14,-0.81,0.06,8.72,-2.27,-1.57,-1.34,-1.78,-0.03,0.59,-0.00,-0.81,-0.02,9.13,1.17,-1.37,-0.53,-0.60,0.05
11437,0.57,-0.14,-0.81,0.06,9.57,-3.34,-1.23,-1.34,-1.78,-0.03,0.59,-0.00,-0.81,-0.02,9.13,1.17,-1.37,-0.30,-0.92,0.03
11457,0.53,-0.15,-0.83,0.05,9.57,-3.34,-1.23,-1.34,-1.78,-0.03,0.57,-0.01,-0.82,-0.02,9.13,1.17,-1.37,-0.30,-0.92,0.03
11477,0.53,-0.15,-0.83,0.05,9.02,-1.50,0.11,-1.34,-1.78,-0.03,0.57,-0.01,-0.82,-0.02,8.59,-0.82,0.01,-0.30,-0.92,0.03
11497,0.51,-0.17,-0.84,0.03,9.02,-1.50,0.11,-1.34,-1.78,-0.03,0.54,-0.01,-0.84,-0.02,8.59,-0.82,0.01,-0.30,-0.92,0.03
11517,0.51,-0.17,-0.84,0.03,10.45,-3.49,-0.96,-1.34,-1.78,-0.03,0.54,-0.01,-0.84,-0.02,8.59,-0.82,0.01,0.10,-1.73,0.08
11537,0.50,-0.18,-0.85,0.01,10.45,-3.49,-0.96,-1.34,-1.78,-0.03,0.50,-0.01,-0.86,-0.02,8.59,-0.82,0.01,0.10,-1.73,0.08
11557,0.50,-0.18,-0.85,0.01,11.02,-3.95,-1.84,-1.34,-1.78,-0.03,0.50,-0.01,-0.86,-0.02,11.27,1.48,-2.29,0.10,-1.73,0.08
11577,0.51,-0.19,-0.84,-0.01,11.02,-3.95,-1.84,-1.34,-1.78,-0.03,0.46,-0.02,-0.89,-0.02,11.27,1.48,-2.29,0.10,-1.73,0.08
11597,0.51,-0.19,-0.84,-0.01,13.93,-4.14,1.60,-1.34,-1.78,-0.03,0.46,-0.02,-0.89,-0.02,11.27,1.48,-2.29,-0.18,-2.63,0.28
11617,0.52,-0.19,-0.83,-0.03,13.93,-4.14,1.60,-1.34,-1.78,-0.03,0.41,-0.03,-0.91,-0.02,11.27,1.48,-2.29,-0.18,-2.63,0.28
11637,0.52,-0.19,-0.83,-0.03,14.84,-2.42,3.44,-1.34,-1.78,-0.03,0.41,-0.03,-0.91,-0.02,17.25,2.93,-0.37,-0.18,-2.63,0.28
11657,0.55,-0.18,-0.81,-0.05,14.84,-2.42,3.44,-1.34,-1.78,-0.03,0.35,-0.05,-0.93,-0.06,17.25,2.93,-0.37,-0.18,-2.63,0.28
11677,0.55,-0.18,-0.81,-0.05,15.04,-0.89,2.71,-1.34,-1.78,-0.03,0.35,-0.05,-0.93,-0.06,16.25,2.39,2.23,-0.18,-2.63,0.28
11697,0.59,-0.18,-0.78,-0.07,15.04,-0.89,2.71,-1.34,-1.78,-0.03,0.30,-0.07,-0.95,-0.08,16.25,2.39,2.23,-0.18,-2.63,0.28
11717,0.59,-0.18,-0.78,-0.07,12.36,-3.95,-4.83,-1.34,-1.78,-0.03,0.30,-0.07,-0.95,-0.08,14.33,-4.81,-8.68,-0.18,-2.63,0.28
11737,0.63,-0.18,-0.75,-0.07,12.36,-3.95,-4.83,-1.34,-1.78,-0.03,0.28,-0.07,-0.95,-0.06,14.33,-4.81,-8.68,-0.18,-2.63,0.28
11757,0.63,-0.18,-0.75,-0.07,12.36,-3.95,-4.83,1.62,2.75,0.48,0.28,-0.07,-0.95,-0.06,6.18,-4.65,-14.28,-0.18,-2.63,0.28
11777,0.67,-0.17,-0.72,-0.05,12.36,-3.95,-4.83,1.62,2.75,0.48,0.30,-0.08,-0.95,-0.07,6.18,-4.65,-14.28,-0.18,-2.63,0.28
11797,0.67,-0.17,-0.72,-0.05,12.21,-2.23,-4.87,1.62,2.75,0.48,0.30,-0.08,-0.95,-0.07,6.18,-4.65,-14.28,-0.11,1.10,0.46
11817,0.71,-0.17,-0.68,-0.04,12.21,-2.23,-4.87,1.62,2.75,0.48,0.35,-0.07,-0.93,-0.03,6.18,-4.65,-14.28,-0.11,1.10,0.46
11837,0.71,-0.17,-0.68,-0.04,6.73,-2.69,-5.14,1.62,2.75,0.48,0.35,-0.07,-0.93,-0.03,4.30,-0.55,-5.31,-0.11,1.10,0.46
11857,0.74,-0.15,-0.65,-0.03,6.73,-2.69,-5.14,1.62,2.75,0.48,0.43,-0.06,-0.90,-0.03,4.30,-0.55,-5.31,-0.11,1.10,0.46
11877,0.74,-0.15,-0.65,-0.03,5.54,-2.07,-4.64,1.62,2.75,0.48,0.43,-0.06,-0.90,-0.03,4.41,0.06,-3.89,-0.11,1.10,0.46
11897,0.76,-0.13,-0.63,0.00,5.54,-2.07,-4.64,1.62,2.75,0.48,0.51,-0.05,-0.86,-0.04,4.41,0.06,-3.89,-0.11,1.10,0.46
11917,0.76,-0.13,-0.63,0.00,3.01,-1.50,-5.91,1.62,2.75,0.48,0.51,-0.05,-0.86,-0.04,4.87,0.90,-5.35,-0.11,1.10,0.46
11937,0.77,-0.11,-0.63,0.03,3.01,-1.50,-5.91,1.62,2.75,0.48,0.60,-0.04,-0.80,-0.06,4.87,0.90,-5.35,-0.11,1.10,0.46
11957,0.77,-0.11,-0.63,0.03,2.55,-0.01,-5.91,1.62,2.75,0.48,0.60,-0.04,-0.80,-0.06,4.87,0.90,-5.35,-0.34,5.60,-0.80
11977,0.76,-0.10,-0.64,0.05,2.55,-0.01,-5.91,1.62,2.75,0.48,0.69,-0.02,-0.72,-0.08,4.87,0.90,-5.35,-0.34,5.60,-0.80
11997,0.76,-0.10,-0.64,0.05,6.00,-0.43,-2.15,1.62,2.75,0.48,0.69,-0.02,-0.72,-0.08,4.87,0.90,-5.35,-0.26,6.02,-0.68
12017,0.76,-0.09,-0.64,0.07,6.00,-0.43,-2.15,1.62,2.75,0.48,0.76,-0.01,-0.65,-0.09,4.87,0.90,-5.35,-0.26,6.02,-0.68
12037,0.76,-0.09,-0.64,0.07,10.75,-0.89,4.44,1.62,2.75,0.48,0.76,-0.01,-0.65,-0.09,12.34,3.70,-7.15,-0.26,6.02,-0.68
12057,0.76,-0.09,-0.63,0.08,10.75,-0.89,4.44,1.62,2.75,0.48,0.79,-0.01,-0.60,-0.10,12.34,3.70,-7.15,-0.26,6.02,-0.68
12077,0.76,-0.09,-0.63,0.08,12.13,-0.20,8.80,1.62,2.75,0.48,0.79,-0.01,-0.60,-0.10,5.02,-1.82,-7.11,-0.26,6.02,-0.68
12097,0.76,-0.08,-0.63,0.10,12.13,-0.20,8.80,1.62,2.75,0.48,0.79,-0.01,-0.61,-0.08,5.02,-1.82,-7.11,-0.26,6.02,-0.68
12117,0.76,-0.08,-0.63,0.10,12.93,-1.04,6.66,1.62,2.75,0.48,0.79,-0.01,-0.61,-0.08,4.14,1.13,-6.08,-0.26,6.02,-0.68
12137,0.77,-0.08,-0.63,0.10,12.93,-1.04,6.66,1.62,2.75,0.48,0.76,0.02,-0.65,-0.05,4.14,1.13,-6.08,-0.26,6.02,-0.68
12157,0.77,-0.08,-0.63,0.10,16.19,-2.27,8.27,1.62,2.75,0.48,0.76,0.02,-0.65,-0.05,4.14,1.13,-6.08,2.56,-2.14,0.01
12177,0.77,-0.09,-0.63,0.10,16.19,-2.27,8.27,1.62,2.75,0.48,0.73,0.07,-0.68,-0.01,4.14,1.13,-6.08,2.56,-2.14,0.01
12197,0.77,-0.09,-0.63,0.10,19.63,-7.86,-2.11,1.62,2.75,0.48,0.73,0.07,-0.68,-0.01,8.97,3.35,-5.81,2.56,-2.14,0.01
12217,0.75,-0.07,-0.64,0.11,19.63,-7.86,-2.11,1.62,2.75,0.48,0.70,0.08,-0.71,0.01,8.97,3.35,-5.81,2.56,-2.14,0.01
12237,0.75,-0.07,-0.64,0.11,19.63,-7.86,-2.11,-1.07,-0.43,0.04,0.70,0.08,-0.71,0.01,8.97,3.35,-5.81,1.22,-1.72,0.56
12257,0.74,-0.09,-0.65,0.11,19.63,-7.86,-2.11,-1.07,-0.43,0.04,0.68,0.06,-0.73,0.01,8.97,3.35,-5.81,1.22,-1.72,0.56
12277,0.74,-0.09,-0.65,0.11,10.52,-4.79,-4.45,-1.07,-0.43,0.04,0.68,0.06,-0.73,0.01,10.80,2.20,-4.62,1.22,-1.72,0.56
12297,0.73,-0.09,-0.67,0.11,10.52,-4.79,-4.45,-1.07,-0.43,0.04,0.67,0.07,-0.74,0.02,10.80,2.20,-4.62,1.22,-1.72,0.56
12317,0.73,-0.09,-0.67,0.11,9.06,-2.80,-2.65,-1.07,-0.43,0.04,0.67,0.07,-0.74,0.02,9.86,-2.36,-3.24,1.22,-1.72,0.56
12337,0.70,-0.08,-0.70,0.11,9.06,-2.80,-2.65,-1.07,-0.43,0.04,0.66,0.06,-0.75,0.02,9.86,-2.36,-3.24,1.22,-1.72,0.56
12357,0.70,-0.08,-0.70,0.11,9.10,-2.07,-2.65,-1.07,-0.43,0.04,0.66,0.06,-0.75,0.02,9.39,2.16,-2.17,1.22,-1.72,0.56
12377,0.68,-0.09,-0.72,0.11,9.10,-2.07,-2.65,-1.07,-0.43,0.04,0.65,0.05,-0.76,0.01,9.39,2.16,-2.17,1.22,-1.72,0.56
12397,0.68,-0.09,-0.72,0.11,8.84,-2.27,-1.27,-1.07,-0.43,0.04,0.65,0.05,-0.76,0.01,9.39,2.16,-2.17,-0.64,-0.69,0.14
12417,0.65,-0.09,-0.74,0.10,8.84,-2.27,-1.27,-1.07,-0.43,0.04,0.64,0.05,-0.77,0.01,9.39,2.16,-2.17,-0.64,-0.69,0.14
12437,0.65,-0.09,-0.74,0.10,8.68,-2.84,-0.96,-1.07,-0.43,0.04,0.64,0.05,-0.77,0.01,9.20,1.17,-1.14,-0.64,-0.69,0.14
12457,0.62,-0.10,-0.77,0.09,8.68,-2.84,-0.96,-1.07,-0.43,0.04,0.62,0.05,-0.78,0.01,9.20,1.17,-1.14,-0.64,-0.69,0.14
12477,0.62,-0.10,-0.77,0.09,8.72,-3.26,-1.65,-1.07,-0.43,0.04,0.62,0.05,-0.78,0.01,9.24,0.13,-1.59,-0.64,-0.69,0.14
12497,0.59,-0.11,-0.79,0.08,8.72,-3.26,-1.65,-1.07,-0.43,0.04,0.61,0.04,-0.79,0.00,9.24,0.13,-1.59,-0.64,-0.69,0.14
12517,0.59,-0.11,-0.79,0.08,8.72,-2.88,-1.65,-1.07,-0.43,0.04,0.61,0.04,-0.79,0.00,9.35,1.05,-1.67,-0.64,-0.69,0.14
12537,0.56,-0.11,-0.82,0.07,8.72,-2.88,-1.65,-1.07,-0.43,0.04,0.60,0.04,-0.80,0.00,9.35,1.05,-1.67,-0.64,-0.69,0.14
12557,0.56,-0.11,-0.82,0.07,8.72,-2.88,-1.65,-0.88,-2.10,-0.04,0.60,0.04,-0.80,0.00,9.39,-0.32,-0.68,-0.64,-0.69,0.14
12577,0.52,-0.12,-0.84,0.06,8.72,-2.88,-1.65,-0.88,-2.10,-0.04,0.57,0.04,-0.82,-0.00,9.39,-0.32,-0.68,-0.64,-0.69,0.14
12597,0.52,-0.12,-0.84,0.06,9.87,-0.96,0.34,-0.88,-2.10,-0.04,0.57,0.04,-0.82,-0.00,9.39,-0.32,-0.68,-0.12,-1.46,0.09
12617,0.51,-0.13,-0.85,0.05,9.87,-0.96,0.34,-0.88,-2.10,-0.04,0.54,0.04,-0.84,0.00,9.39,-0.32,-0.68,-0.12,-1.46,0.09
12637,0.51,-0.13,-0.85,0.05,9.87,-0.96,0.34,-1.18,-0.20,0.15,0.54,0.04,-0.84,0.00,9.89,-0.63,-0.56,-0.12,-1.46,0.09
12657,0.50,-0.15,-0.85,0.02,9.87,-0.96,0.34,-1.18,-0.20,0.15,0.50,0.03,-0.86,-0.00,9.89,-0.63,-0.56,-0.12,-1.46,0.09
12677,0.50,-0.15,-0.85,0.02,9.87,-0.96,0.34,-1.42,0.53,0.02,0.50,0.03,-0.86,-0.00,9.89,-0.63,-0.56,-0.35,-2.42,0.29
12697,0.52,-0.16,-0.84,-0.00,9.87,-0.96,0.34,-1.42,0.53,0.02,0.45,0.02,-0.89,-0.01,9.89,-0.63,-0.56,-0.35,-2.42,0.29
12717,0.52,-0.16,-0.84,-0.00,12.97,-4.07,4.21,-1.42,0.53,0.02,0.45,0.02,-0.89,-0.01,14.22,2.97,-0.48,-0.35,-2.42,0.29
12737,0.54,-0.16,-0.83,-0.02,12.97,-4.07,4.21,-1.42,0.53,0.02,0.39,0.00,-0.92,-0.02,14.22,2.97,-0.48,-0.35,-2.42,0.29
12757,0.54,-0.16,-0.83,-0.02,18.22,-4.72,5.78,-1.42,0.53,0.02,0.39,0.00,-0.92,-0.02,14.22,2.97,-0.48,-0.95,-3.42,0.49
12777,0.58,-0.15,-0.80,-0.04,18.22,-4.72,5.78,-1.42,0.53,0.02,0.33,-0.02,-0.94,-0.06,14.22,2.97,-0.48,-0.95,-3.42,0.49
12797,0.58,-0.15,-0.80,-0.04,14.58,-1.84,-1.27,-1.42,0.53,0.02,0.33,-0.02,-0.94,-0.06,14.22,2.97,-0.48,-2.37,-3.47,0.06
12817,0.62,-0.15,-0.77,-0.05,14.58,-1.84,-1.27,-1.42,0.53,0.02,0.28,-0.02,-0.96,-0.06,14.22,2.97,-0.48,-2.37,-3.47,0.06
12837,0.62,-0.15,-0.77,-0.05,17.61,-5.10,-6.82,-1.42,0.53,0.02,0.28,-0.02,-0.96,-0.06,11.80,-6.57,-12.28,-2.37,-3.47,0.06
12857,0.67,-0.15,-0.73,-0.04,17.61,-5.10,-6.82,-1.42,0.53,0.02,0.28,-0.03,-0.96,-0.07,11.80,-6.57,-12.28,-2.37,-3.47,0.06
12878,0.67,-0.15,-0.73,-0.04,11.78,-1.20,-5.71,-1.42,0.53,0.02,0.28,-0.03,-0.96,-0.07,6.44,1.86,0.74,-2.37,-3.47,0.06
12897,0.71,-0.14,-0.69,-0.03,11.78,-1.20,-5.71,-1.42,0.53,0.02,0.32,-0.04,-0.95,-0.05,6.44,1.86,0.74,-2.37,-3.47,0.06
12917,0.71,-0.14,-0.69,-0.03,8.72,-1.31,-4.98,-1.42,0.53,0.02,0.32,-0.04,-0.95,-0.05,3.91,-1.82,-4.12,-2.37,-3.47,0.06
12937,0.73,-0.14,-0.66,-0.02,8.72,-1.31,-4.98,-1.42,0.53,0.02,0.38,-0.03,-0.92,-0.03,3.91,-1.82,-4.12,-2.37,-3.47,0.06
12957,0.73,-0.14,-0.66,-0.02,6.73,-2.46,-4.41,-1.42,0.53,0.02,0.38,-0.03,-0.92,-0.03,3.95,-0.75,-4.05,-2.37,-3.47,0.06
12977,0.76,-0.13,-0.64,-0.00,6.73,-2.46,-4.41,-1.42,0.53,0.02,0.46,-0.03,-0.89,-0.02,3.95,-0.75,-4.05,-2.37,-3.47,0.06
12997,0.76,-0.13,-0.64,-0.00,5.04,-1.69,-4.18,-1.42,0.53,0.02,0.46,-0.03,-0.89,-0.02,3.95,-0.75,-4.05,0.04,4.49,0.09
13017,0.77,-0.11,-0.63,0.02,5.04,-1.69,-4.18,-1.42,0.53,0.02,0.54,-0.03,-0.84,-0.03,3.95,-0.75,-4.05,0.04,4.49,0.09
13037,0.77,-0.11,-0.63,0.02,3.82,-0.96,-5.21,-1.42,0.53,0.02,0.54,-0.03,-0.84,-0.03,6.98,1.90,-4.70,0.04,4.49,0.09
13057,0.77,-0.09,-0.63,0.05,3.82,-0.96,-5.21,-1.42,0.53,0.02,0.63,-0.03,-0.77,-0.06,6.98,1.90,-4.70,0.04,4.49,0.09
13077,0.77,-0.09,-0.63,0.05,3.82,-0.96,-5.21,1.36,-0.16,0.34,0.63,-0.03,-0.77,-0.06,6.98,1.90,-4.70,-0.98,5.58,-0.49
13097,0.77,-0.09,-0.63,0.06,3.82,-0.96,-5.21,1.36,-0.16,0.34,0.71,-0.03,-0.70,-0.08,6.98,1.90,-4.70,-0.98,5.58,-0.49
13117,0.77,-0.09,-0.63,0.06,8.50,0.91,0.72,1.36,-0.16,0.34,0.71,-0.03,-0.70,-0.08,12.92,1.97,-8.26,-0.98,5.58,-0.49
13137,0.77,-0.09,-0.63,0.08,8.50,0.91,0.72,1.36,-0.16,0.34,0.77,-0.02,-0.63,-0.09,12.92,1.97,-8.26,-0.98,5.58,-0.49
13157,0.77,-0.09,-0.63,0.08,8.50,0.91,0.72,0.13,0.28,0.51,0.77,-0.02,-0.63,-0.09,12.92,1.97,-8.26,-0.12,4.29,-0.33
13177,0.77,-0.09,-0.63,0.09,8.50,0.91,0.72,0.13,0.28,0.51,0.79,-0.01,-0.60,-0.09,12.92,1.97,-8.26,-0.12,4.29,-0.33
13197,0.77,-0.09,-0.63,0.09,11.64,-1.00,10.26,0.13,0.28,0.51,0.79,-0.01,-0.60,-0.09,5.06,0.29,-5.62,-0.12,4.29,-0.33
13217,0.77,-0.09,-0.63,0.10,11.64,-1.00,10.26,0.13,0.28,0.51,0.78,-0.00,-0.63,-0.07,5.06,0.29,-5.62,-0.12,4.29,-0.33
13237,0.77,-0.09,-0.63,0.10,11.90,-0.89,5.24,0.13,0.28,0.51,0.78,-0.00,-0.63,-0.07,5.06,0.10,-7.96,-0.12,4.29,-0.33
13257,0.78,-0.08,-0.61,0.10,11.90,-0.89,5.24,0.13,0.28,0.51,0.75,0.03,-0.66,-0.04,5.06,0.10,-7.96,-0.12,4.29,-0.33
13277,0.78,-0.08,-0.61,0.10,-3.96,0.45,-7.62,0.13,0.28,0.51,0.75,0.03,-0.66,-0.04,16.21,9.90,4.99,-0.12,4.29,-0.33
13297,0.77,-0.08,-0.63,0.10,-3.96,0.45,-7.62,0.13,0.28,0.51,0.73,0.06,-0.68,-0.01,16.21,9.90,4.99,-0.12,4.29,-0.33
13317,0.77,-0.08,-0.63,0.10,16.15,-6.36,-4.07,0.13,0.28,0.51,0.73,0.06,-0.68,-0.01,13.53,-1.44,-5.93,-0.12,4.29,-0.33
13337,0.75,-0.08,-0.64,0.11,16.15,-6.36,-4.07,0.13,0.28,0.51,0.70,0.07,-0.71,0.01,13.53,-1.44,-5.93,-0.12,4.29,-0.33
13357,0.75,-0.08,-0.64,0.11,7.46,1.87,-7.48,0.13,0.28,0.51,0.70,0.07,-0.71,0.01,13.53,-1.44,-5.93,0.96,-1.55,0.39
13377,0.74,-0.09,-0.66,0.10,7.46,1.87,-7.48,0.13,0.28,0.51,0.69,0.06,-0.73,0.01,13.53,-1.44,-5.93,0.96,-1.55,0.39
13397,0.74,-0.09,-0.66,0.10,9.33,-6.21,-3.37,0.13,0.28,0.51,0.69,0.06,-0.73,0.01,11.23,-0.94,-3.43,0.96,-1.55,0.39
13417,0.72,-0.09,-0.68,0.10,9.33,-6.21,-3.37,0.13,0.28,0.51,0.67,0.06,-0.74,0.02,11.23,-0.94,-3.43,0.96,-1.55,0.39
13437,0.72,-0.09,-0.68,0.10,7.99,-4.18,-1.92,0.13,0.28,0.51,0.67,0.06,-0.74,0.02,11.23,-0.94,-3.43,0.85,-0.92,0.21
13457,0.70,-0.09,-0.70,0.11,7.99,-4.18,-1.92,0.13,0.28,0.51,0.66,0.05,-0.75,0.01,11.23,-0.94,-3.43,0.85,-0.92,0.21
13477,0.70,-0.09,-0.70,0.11,9.57,-1.00,-2.15,0.13,0.28,0.51,0.66,0.05,-0.75,0.01,9.85,0.90,-2.36,0.85,-0.92,0.21
13497,0.68,-0.09,-0.72,0.10,9.57,-1.00,-2.15,0.13,0.28,0.51,0.65,0.04,-0.76,0.01,9.85,0.90,-2.36,0.85,-0.92,0.21
13517,0.68,-0.09,-0.72,0.10,8.76,-2.19,-1.38,0.13,0.28,0.51,0.65,0.04,-0.76,0.01,9.85,0.90,-2.36,-0.64,-0.67,0.15
13537,0.65,-0.10,-0.75,0.09,8.76,-2.19,-1.38,0.13,0.28,0.51,0.64,0.04,-0.77,-0.00,9.85,0.90,-2.36,-0.64,-0.67,0.15
13557,0.65,-0.10,-0.75,0.09,8.76,-2.19,-1.38,-0.96,-1.69,0.02,0.64,0.04,-0.77,-0.00,9.16,0.40,-0.98,-0.64,-0.67,0.15
13577,0.62,-0.11,-0.77,0.08,8.76,-2.19,-1.38,-0.96,-1.69,0.02,0.63,0.03,-0.78,-0.00,9.16,0.40,-0.98,-0.64,-0.67,0.15
13597,0.62,-0.11,-0.77,0.08,8.76,-2.19,-1.38,-0.73,-1.84,-0.01,0.63,0.03,-0.78,-0.00,9.16,0.40,-0.98,-0.07,-0.74,0.05
13617,0.59,-0.11,-0.80,0.07,8.76,-2.19,-1.38,-0.73,-1.84,-0.01,0.61,0.03,-0.79,-0.01,9.16,0.40,-0.98,-0.07,-0.74,0.05
13637,0.59,-0.11,-0.80,0.07,8.64,-2.61,-1.65,-0.73,-1.84,-0.01,0.61,0.03,-0.79,-0.01,9.32,1.02,-1.56,-0.07,-0.74,0.05
13657,0.55,-0.12,-0.82,0.06,8.64,-2.61,-1.65,-0.73,-1.84,-0.01,0.60,0.03,-0.80,-0.01,9.32,1.02,-1.56,-0.07,-0.74,0.05
13677,0.55,-0.12,-0.82,0.06,8.64,-2.61,-1.65,-1.01,-2.18,0.01,0.60,0.03,-0.80,-0.01,9.47,-0.25,-0.95,-0.07,-0.74,0.05
13697,0.52,-0.13,-0.84,0.06,8.64,-2.61,-1.65,-1.01,-2.18,0.01,0.58,0.02,-0.82,-0.01,9.47,-0.25,-0.95,-0.07,-0.74,0.05
13717,0.52,-0.13,-0.84,0.06,9.11,-1.20,-0.66,-1.01,-2.18,0.01,0.58,0.02,-0.82,-0.01,8.93,0.25,-0.21,-0.07,-0.74,0.05
13737,0.50,-0.14,-0.85,0.04,9.11,-1.20,-0.66,-1.01,-2.18,0.01,0.55,0.02,-0.84,-0.01,8.93,0.25,-0.21,-0.07,-0.74,0.05
13757,0.50,-0.14,-0.85,0.04,10.25,-4.49,-0.08,-1.01,-2.18,0.01,0.55,0.02,-0.84,-0.01,10.04,-0.21,-0.52,-0.07,-0.74,0.05
13777,0.49,-0.16,-0.86,0.02,10.25,-4.49,-0.08,-1.01,-2.18,0.01,0.51,0.02,-0.86,-0.01,10.04,-0.21,-0.52,-0.07,-0.74,0.05
13797,0.49,-0.16,-0.86,0.02,12.51,-3.41,-1.77,-1.01,-2.18,0.01,0.51,0.02,-0.86,-0.01,10.04,-0.21,-0.52,-0.20,-2.34,0.17
13817,0.50,-0.17,-0.85,-0.01,12.51,-3.41,-1.77,-1.01,-2.18,0.01,0.46,0.01,-0.89,-0.02,10.04,-0.21,-0.52,-0.20,-2.34,0.17
13837,0.50,-0.17,-0.85,-0.01,12.82,-3.49,3.79,-1.01,-2.18,0.01,0.46,0.01,-0.89,-0.02,14.45,2.55,-0.83,-0.20,-2.34,0.17
13857,0.53,-0.17,-0.83,-0.03,12.82,-3.49,3.79,-1.01,-2.18,0.01,0.40,-0.01,-0.92,-0.03,14.45,2.55,-0.83,-0.20,-2.34,0.17
13877,0.53,-0.17,-0.83,-0.03,15.81,-5.91,5.89,-1.01,-2.18,0.01,0.40,-0.01,-0.92,-0.03,14.45,2.55,-0.83,-0.98,-3.44,0.41
13897,0.57,-0.15,-0.81,-0.04,15.81,-5.91,5.89,-1.01,-2.18,0.01,0.34,-0.03,-0.94,-0.08,14.45,2.55,-0.83,-0.98,-3.44,0.41
13917,0.57,-0.15,-0.81,-0.04,15.39,-2.30,5.20,-1.01,-2.18,0.01,0.34,-0.03,-0.94,-0.08,15.68,-1.21,-1.48,-0.98,-3.44,0.41
13937,0.61,-0.15,-0.78,-0.05,15.39,-2.30,5.20,-1.01,-2.18,0.01,0.29,-0.04,-0.95,-0.08,15.68,-1.21,-1.48,-0.98,-3.44,0.41
13957,0.61,-0.15,-0.78,-0.05,14.46,-2.30,-8.24,-1.01,-2.18,0.01,0.29,-0.04,-0.95,-0.08,15.68,-1.21,-1.48,0.56,-2.01,0.12
13977,0.65,-0.16,-0.74,-0.04,14.46,-2.30,-8.24,-1.01,-2.18,0.01,0.29,-0.05,-0.95,-0.08,15.68,-1.21,-1.48,0.56,-2.01,0.12
13997,0.65,-0.16,-0.74,-0.04,14.46,-2.30,-8.24,0.82,2.89,0.73,0.29,-0.05,-0.95,-0.08,5.33,2.74,-1.56,0.56,-2.01,0.12
14017,0.69,-0.15,-0.71,-0.03,14.46,-2.30,-8.24,0.82,2.89,0.73,0.32,-0.05,-0.94,-0.05,5.33,2.74,-1.56,0.56,-2.01,0.12
14037,0.69,-0.15,-0.71,-0.03,14.46,-2.30,-8.24,0.78,2.37,0.57,0.32,-0.05,-0.94,-0.05,4.76,-1.86,-4.47,0.56,-2.01,0.12
14057,0.72,-0.14,-0.67,-0.02,14.46,-2.30,-8.24,0.78,2.37,0.57,0.39,-0.04,-0.92,-0.03,4.76,-1.86,-4.47,0.56,-2.01,0.12
14077,0.72,-0.14,-0.67,-0.02,14.46,-2.30,-8.24,0.64,2.20,0.55,0.39,-0.04,-0.92,-0.03,5.06,1.82,-3.74,0.56,-2.01,0.12
14097,0.75,-0.13,-0.65,0.01,14.46,-2.30,-8.24,0.64,2.20,0.55,0.47,-0.04,-0.88,-0.04,5.06,1.82,-3.74,0.56,-2.01,0.12
14117,0.75,-0.13,-0.65,0.01,14.46,-2.30,-8.24,1.78,1.24,0.70,0.47,-0.04,-0.88,-0.04,4.99,3.62,-4.93,0.56,-2.01,0.12
14137,0.77,-0.11,-0.63,0.04,14.46,-2.30,-8.24,1.78,1.24,0.70,0.56,-0.03,-0.83,-0.05,4.99,3.62,-4.93,0.56,-2.01,0.12
14157,0.77,-0.11,-0.63,0.04,3.28,-1.04,-5.87,1.78,1.24,0.70,0.56,-0.03,-0.83,-0.05,7.21,1.78,-4.96,0.56,-2.01,0.12
14177,0.77,-0.10,-0.63,0.06,3.28,-1.04,-5.87,1.78,1.24,0.70,0.65,-0.02,-0.75,-0.06,7.21,1.78,-4.96,0.56,-2.01,0.12
14197,0.77,-0.10,-0.63,0.06,4.35,1.03,-3.34,1.78,1.24,0.70,0.65,-0.02,-0.75,-0.06,9.55,1.90,-6.73,0.56,-2.01,0.12
14217,0.76,-0.09,-0.64,0.07,4.35,1.03,-3.34,1.78,1.24,0.70,0.73,-0.02,-0.67,-0.08,9.55,1.90,-6.73,0.56,-2.01,0.12
14237,0.76,-0.09,-0.64,0.07,8.22,0.45,0.72,1.78,1.24,0.70,0.73,-0.02,-0.67,-0.08,9.55,1.90,-6.73,-0.73,5.58,-0.50
14257,0.76,-0.08,-0.63,0.09,8.22,0.45,0.72,1.78,1.24,0.70,0.78,-0.01,-0.62,-0.09,9.55,1.90,-6.73,-0.73,5.58,-0.50
14277,0.76,-0.08,-0.63,0.09,12.44,-0.66,7.70,1.78,1.24,0.70,0.78,-0.01,-0.62,-0.09,8.75,0.94,-7.95,-0.73,5.58,-0.50
14297,0.76,-0.08,-0.63,0.10,12.44,-0.66,7.70,1.78,1.24,0.70,0.79,-0.00,-0.60,-0.08,8.75,0.94,-7.95,-0.73,5.58,-0.50
14358,0.76,-0.08,-0.63,0.10,10.94,-0.54,10.38,1.78,1.24,0.70,0.79,-0.00,-0.60,-0.08,8.75,0.94,-7.95,0.67,0.31,0.20
14369,0.76,-0.08,-0.64,0.11,10.94,-0.54,10.38,1.78,1.24,0.70,0.75,0.06,-0.66,-0.02,8.75,0.94,-7.95,0.67,0.31,0.20
14379,0.76,-0.08,-0.64,0.11,9.75,-1.88,2.25,1.78,1.24,0.70,0.75,0.06,-0.66,-0.02,8.75,0.94,-7.95,1.78,-2.32,0.37
14392,0.76,-0.08,-0.64,0.11,9.75,-1.88,2.25,1.62,0.96,0.10,0.73,0.08,-0.68,-0.00,8.75,0.94,-7.95,1.78,-2.32,0.37
14400,0.76,-0.06,-0.64,0.13,9.75,-1.88,2.25,1.62,0.96,0.10,0.73,0.08,-0.68,-0.00,8.75,0.94,-7.95,2.58,-2.00,0.24
14417,0.76,-0.06,-0.64,0.13,9.75,-1.88,2.25,0.75,-1.69,0.09,0.72,0.08,-0.69,0.01,8.75,0.94,-7.95,2.58,-2.00,0.24
14437,0.74,-0.06,-0.65,0.13,9.75,-1.88,2.25,0.75,-1.69,0.09,0.72,0.08,-0.69,0.01,8.43,0.36,-4.58,2.58,-2.00,0.24
14457,0.74,-0.06,-0.65,0.13,6.23,0.26,-10.84,0.75,-1.69,0.09,0.70,0.09,-0.70,0.02,8.43,0.36,-4.58,2.58,-2.00,0.24
14477,0.73,-0.08,-0.66,0.11,6.23,0.26,-10.84,0.75,-1.69,0.09,0.70,0.09,-0.70,0.02,7.82,1.02,-5.81,2.58,-2.00,0.24
14497,0.73,-0.08,-0.66,0.11,5.50,-5.29,-1.77,0.75,-1.69,0.09,0.68,0.08,-0.73,0.02,7.82,1.02,-5.81,2.58,-2.00,0.24
14517,0.72,-0.09,-0.68,0.11,5.50,-5.29,-1.77,0.75,-1.69,0.09,0.68,0.08,-0.73,0.02,11.23,-1.09,-3.17,2.58,-2.00,0.24
14537,0.72,-0.09,-0.68,0.11,8.61,-1.12,-1.80,0.75,-1.69,0.09,0.66,0.08,-0.75,0.03,11.23,-1.09,-3.17,2.58,-2.00,0.24
14557,0.70,-0.08,-0.70,0.11,8.61,-1.12,-1.80,0.75,-1.69,0.09,0.66,0.08,-0.75,0.03,11.23,-1.09,-3.17,0.14,-1.16,0.31
14577,0.70,-0.08,-0.70,0.11,9.06,-2.34,-3.80,0.75,-1.69,0.09,0.65,0.07,-0.76,0.03,11.23,-1.09,-3.17,0.14,-1.16,0.31
14597,0.67,-0.09,-0.73,0.10,9.06,-2.34,-3.80,0.75,-1.69,0.09,0.65,0.07,-0.76,0.03,9.77,-0.63,-3.05,0.14,-1.16,0.31
14617,0.67,-0.09,-0.73,0.10,8.18,-3.49,-2.99,0.75,-1.69,0.09,0.63,0.07,-0.77,0.02,9.77,-0.63,-3.05,0.14,-1.16,0.31
14637,0.64,-0.09,-0.76,0.09,8.18,-3.49,-2.99,0.75,-1.69,0.09,0.63,0.07,-0.77,0.02,9.62,-0.59,-2.40,0.14,-1.16,0.31
14657,0.64,-0.09,-0.76,0.09,8.50,-2.96,-2.30,0.75,-1.69,0.09,0.62,0.06,-0.78,0.02,9.62,-0.59,-2.40,0.14,-1.16,0.31
14677,0.61,-0.10,-0.79,0.08,8.50,-2.96,-2.30,0.75,-1.69,0.09,0.62,0.06,-0.78,0.02,9.66,0.32,-1.98,0.14,-1.16,0.31
14697,0.61,-0.10,-0.79,0.08,8.50,-2.96,-2.30,-0.74,-2.34,-0.07,0.61,0.05,-0.79,0.01,9.66,0.32,-1.98,0.14,-1.16,0.31
14717,0.57,-0.10,-0.81,0.07,8.50,-2.96,-2.30,-0.74,-2.34,-0.07,0.61,0.05,-0.79,0.01,9.66,0.32,-1.98,-0.47,-0.75,0.01
14737,0.57,-0.10,-0.81,0.07,8.76,-1.84,-1.77,-0.74,-2.34,-0.07,0.60,0.05,-0.80,0.00,9.66,0.32,-1.98,-0.47,-0.75,0.01
14757,0.53,-0.11,-0.84,0.07,8.76,-1.84,-1.77,-0.74,-2.34,-0.07,0.60,0.05,-0.80,0.00,9.28,0.21,-1.29,-0.47,-0.75,0.01
14777,0.53,-0.11,-0.84,0.07,8.76,-1.84,-1.77,-0.87,-2.07,0.09,0.58,0.04,-0.81,-0.00,9.28,0.21,-1.29,-0.47,-0.75,0.01
14797,0.50,-0.12,-0.86,0.06,8.76,-1.84,-1.77,-0.87,-2.07,0.09,0.58,0.04,-0.81,-0.00,8.82,0.63,0.43,-0.47,-0.75,0.01
14817,0.50,-0.12,-0.86,0.06,10.07,-2.65,0.07,-0.87,-2.07,0.09,0.56,0.04,-0.83,-0.00,8.82,0.63,0.43,-0.47,-0.75,0.01
14837,0.49,-0.13,-0.86,0.04,10.07,-2.65,0.07,-0.87,-2.07,0.09,0.56,0.04,-0.83,-0.00,9.74,0.21,-0.83,-0.47,-0.75,0.01
14857,0.49,-0.13,-0.86,0.04,11.36,-3.72,-1.23,-0.87,-2.07,0.09,0.53,0.04,-0.85,-0.01,9.74,0.21,-0.83,-0.47,-0.75,0.01
14877,0.48,-0.15,-0.86,0.01,11.36,-3.72,-1.23,-0.87,-2.07,0.09,0.53,0.04,-0.85,-0.01,11.65,1.93,-1.02,-0.47,-0.75,0.01
14897,0.48,-0.15,-0.86,0.01,13.09,-4.26,0.26,-0.87,-2.07,0.09,0.48,0.04,-0.87,-0.01,11.65,1.93,-1.02,-0.47,-0.75,0.01
14917,0.50,-0.16,-0.85,-0.01,13.09,-4.26,0.26,-0.87,-2.07,0.09,0.48,0.04,-0.87,-0.01,14.14,1.59,-1.02,-0.47,-0.75,0.01
14937,0.50,-0.16,-0.85,-0.01,16.95,-3.61,6.05,-0.87,-2.07,0.09,0.43,0.03,-0.90,-0.01,14.14,1.59,-1.02,-0.47,-0.75,0.01
14957,0.54,-0.16,-0.83,-0.03,16.95,-3.61,6.05,-0.87,-2.07,0.09,0.43,0.03,-0.90,-0.01,19.78,6.91,5.49,-0.47,-0.75,0.01
14977,0.54,-0.16,-0.83,-0.03,17.76,-2.30,4.82,-0.87,-2.07,0.09,0.37,0.00,-0.93,-0.04,19.78,6.91,5.49,-0.47,-0.75,0.01
14997,0.58,-0.15,-0.80,-0.05,17.76,-2.30,4.82,-0.87,-2.07,0.09,0.37,0.00,-0.93,-0.04,15.75,3.24,1.78,-0.47,-0.75,0.01
15017,0.58,-0.15,-0.80,-0.05,12.25,-1.61,-6.10,-0.87,-2.07,0.09,0.30,-0.01,-0.95,-0.08,15.75,3.24,1.78,-0.47,-0.75,0.01
15037,0.62,-0.15,-0.77,-0.05,12.25,-1.61,-6.10,-0.87,-2.07,0.09,0.30,-0.01,-0.95,-0.08,11.50,-5.38,-10.33,-0.47,-0.75,0.01
15057,0.62,-0.15,-0.77,-0.05,15.46,-4.11,-8.39,-0.87,-2.07,0.09,0.29,-0.02,-0.96,-0.07,11.50,-5.38,-10.33,-0.47,-0.75,0.01
15077,0.67,-0.15,-0.73,-0.04,15.46,-4.11,-8.39,-0.87,-2.07,0.09,0.29,-0.02,-0.96,-0.07,11.50,-5.38,-10.33,-0.81,0.28,0.67
15097,0.67,-0.15,-0.73,-0.04,15.46,-4.11,-8.39,0.69,2.87,0.36,0.31,-0.03,-0.95,-0.06,11.50,-5.38,-10.33,-0.81,0.28,0.67
15117,0.71,-0.15,-0.69,-0.03,15.46,-4.11,-8.39,0.69,2.87,0.36,0.31,-0.03,-0.95,-0.06,5.10,-1.70,-4.89,-0.81,0.28,0.67
15137,0.71,-0.15,-0.69,-0.03,8.30,-2.92,-5.87,0.69,2.87,0.36,0.36,-0.03,-0.93,-0.03,5.10,-1.70,-4.89,-0.81,0.28,0.67
15157,0.74,-0.15,-0.66,-0.01,8.30,-2.92,-5.87,0.69,2.87,0.36,0.36,-0.03,-0.93,-0.03,5.10,-1.70,-4.89,0.68,3.82,0.29
15177,0.74,-0.15,-0.66,-0.01,8.30,-2.92,-5.87,1.08,2.06,0.75,0.44,-0.02,-0.90,-0.03,5.10,-1.70,-4.89,0.68,3.82,0.29
15197,0.76,-0.13,-0.64,0.02,8.30,-2.92,-5.87,1.08,2.06,0.75,0.44,-0.02,-0.90,-0.03,4.99,2.86,-5.46,0.68,3.82,0.29
15217,0.76,-0.13,-0.64,0.02,3.39,-1.46,-6.21,1.08,2.06,0.75,0.53,-0.02,-0.85,-0.04,4.99,2.86,-5.46,0.68,3.82,0.29
15237,0.77,-0.11,-0.63,0.05,3.39,-1.46,-6.21,1.08,2.06,0.75,0.53,-0.02,-0.85,-0.04,7.09,1.90,-5.89,0.68,3.82,0.29
15257,0.77,-0.11,-0.63,0.05,2.29,1.11,-6.71,1.08,2.06,0.75,0.62,-0.01,-0.78,-0.05,7.09,1.90,-5.89,0.68,3.82,0.29
15277,0.77,-0.09,-0.63,0.07,2.29,1.11,-6.71,1.08,2.06,0.75,0.62,-0.01,-0.78,-0.05,12.03,2.93,-9.56,0.68,3.82,0.29
15297,0.77,-0.09,-0.63,0.07,6.95,1.72,-0.77,1.08,2.06,0.75,0.71,-0.00,-0.71,-0.06,12.03,2.93,-9.56,0.68,3.82,0.29
15317,0.77,-0.08,-0.63,0.08,6.95,1.72,-0.77,1.08,2.06,0.75,0.71,-0.00,-0.71,-0.06,9.66,-0.82,-7.95,0.68,3.82,0.29
15337,0.77,-0.08,-0.63,0.08,9.37,-0.81,4.02,1.08,2.06,0.75,0.76,0.01,-0.64,-0.07,9.66,-0.82,-7.95,0.68,3.82,0.29
15357,0.77,-0.08,-0.62,0.09,9.37,-0.81,4.02,1.08,2.06,0.75,0.76,0.01,-0.64,-0.07,10.46,2.12,-9.60,0.68,3.82,0.29
15377,0.77,-0.08,-0.62,0.09,11.14,-0.23,8.73,1.08,2.06,0.75,0.79,0.01,-0.61,-0.07,10.46,2.12,-9.60,0.68,3.82,0.29
15397,0.77,-0.08,-0.63,0.10,11.14,-0.23,8.73,1.08,2.06,0.75,0.79,0.01,-0.61,-0.07,5.33,0.21,-6.65,0.68,3.82,0.29
15417,0.77,-0.08,-0.63,0.10,12.05,-1.27,4.97,1.08,2.06,0.75,0.77,0.01,-0.63,-0.06,5.33,0.21,-6.65,0.68,3.82,0.29
15437,0.78,-0.09,-0.62,0.11,12.05,-1.27,4.97,1.08,2.06,0.75,0.77,0.01,-0.63,-0.06,5.33,0.21,-6.65,1.35,-2.15,0.30
15457,0.78,-0.09,-0.62,0.11,-4.54,1.57,-7.29,1.08,2.06,0.75,0.75,0.05,-0.66,-0.03,5.33,0.21,-6.65,1.35,-2.15,0.30
15477,0.76,-0.09,-0.63,0.11,-4.54,1.57,-7.29,1.08,2.06,0.75,0.75,0.05,-0.66,-0.03,12.95,1.71,-5.16,1.35,-2.15,0.30
15497,0.76,-0.09,-0.63,0.11,10.37,-2.19,-2.15,1.08,2.06,0.75,0.73,0.07,-0.68,-0.01,12.95,1.71,-5.16,1.35,-2.15,0.30
15517,0.75,-0.09,-0.65,0.11,10.37,-2.19,-2.15,1.08,2.06,0.75,0.73,0.07,-0.68,-0.01,10.04,-1.97,-6.46,1.35,-2.15,0.30
15537,0.75,-0.09,-0.65,0.11,6.96,-0.50,-9.93,1.08,2.06,0.75,0.70,0.07,-0.71,0.01,10.04,-1.97,-6.46,1.35,-2.15,0.30
15557,0.74,-0.10,-0.66,0.10,6.96,-0.50,-9.93,1.08,2.06,0.75,0.70,0.07,-0.71,0.01,10.04,-1.97,-6.46,-0.20,-1.45,0.50
15577,0.74,-0.10,-0.66,0.10,9.48,-6.44,-3.80,1.08,2.06,0.75,0.68,0.06,-0.73,0.01,10.04,-1.97,-6.46,-0.20,-1.45,0.50
15597,0.72,-0.10,-0.68,0.11,9.48,-6.44,-3.80,1.08,2.06,0.75,0.68,0.06,-0.73,0.01,9.82,-1.28,-3.17,-0.20,-1.45,0.50
15617,0.72,-0.10,-0.68,0.11,9.48,-6.44,-3.80,0.37,-1.49,-0.29,0.67,0.06,-0.74,0.02,9.82,-1.28,-3.17,-0.20,-1.45,0.50
15637,0.70,-0.09,-0.70,0.11,9.48,-6.44,-3.80,0.37,-1.49,-0.29,0.67,0.06,-0.74,0.02,9.85,0.71,-2.44,-0.20,-1.45,0.50
15657,0.70,-0.09,-0.70,0.11,9.22,-1.42,-1.96,0.37,-1.49,-0.29,0.66,0.05,-0.75,0.02,9.85,0.71,-2.44,-0.20,-1.45,0.50
15677,0.68,-0.10,-0.72,0.10,9.22,-1.42,-1.96,0.37,-1.49,-0.29,0.66,0.05,-0.75,0.02,9.78,0.13,-1.75,-0.20,-1.45,0.50
15697,0.68,-0.10,-0.72,0.10,9.22,-1.42,-1.96,-0.88,-1.54,-0.03,0.65,0.04,-0.76,0.01,9.78,0.13,-1.75,-0.20,-1.45,0.50
15717,0.65,-0.11,-0.75,0.09,9.22,-1.42,-1.96,-0.88,-1.54,-0.03,0.65,0.04,-0.76,0.01,9.20,0.13,-0.87,-0.20,-1.45,0.50
15737,0.65,-0.11,-0.75,0.09,8.84,-3.26,-1.00,-0.88,-1.54,-0.03,0.64,0.03,-0.77,-0.00,9.20,0.13,-0.87,-0.20,-1.45,0.50
15757,0.62,-0.11,-0.77,0.08,8.84,-3.26,-1.00,-0.88,-1.54,-0.03,0.64,0.03,-0.77,-0.00,9.58,-0.29,-1.21,-0.20,-1.45,0.50
15777,0.62,-0.11,-0.77,0.08,8.57,-4.53,-1.77,-0.88,-1.54,-0.03,0.63,0.03,-0.78,-0.01,9.58,-0.29,-1.21,-0.20,-1.45,0.50
15797,0.59,-0.12,-0.79,0.07,8.57,-4.53,-1.77,-0.88,-1.54,-0.03,0.63,0.03,-0.78,-0.01,9.36,0.86,-1.48,-0.20,-1.45,0.50
15817,0.59,-0.12,-0.79,0.07,8.50,-2.38,-1.73,-0.88,-1.54,-0.03,0.62,0.02,-0.79,-0.02,9.36,0.86,-1.48,-0.20,-1.45,0.50
15837,0.55,-0.13,-0.82,0.06,8.50,-2.38,-1.73,-0.88,-1.54,-0.03,0.62,0.02,-0.79,-0.02,9.36,0.86,-1.48,-0.17,-0.86,0.01
15857,0.55,-0.13,-0.82,0.06,8.72,-3.26,-0.96,-0.88,-1.54,-0.03,0.60,0.02,-0.80,-0.02,9.36,0.86,-1.48,-0.17,-0.86,0.01
15877,0.52,-0.14,-0.84,0.05,8.72,-3.26,-0.96,-0.88,-1.54,-0.03,0.60,0.02,-0.80,-0.02,7.97,-0.21,0.13,-0.17,-0.86,0.01
15897,0.52,-0.14,-0.84,0.05,10.37,-2.57,0.45,-0.88,-1.54,-0.03,0.58,0.02,-0.81,-0.01,7.97,-0.21,0.13,-0.17,-0.86,0.01
15917,0.51,-0.15,-0.85,0.04,10.37,-2.57,0.45,-0.88,-1.54,-0.03,0.58,0.02,-0.81,-0.01,7.97,-0.21,0.13,0.24,-1.67,0.06
15937,0.51,-0.15,-0.85,0.04,9.68,-3.34,-1.77,-0.88,-1.54,-0.03,0.55,0.03,-0.83,-0.01,7.97,-0.21,0.13,0.24,-1.67,0.06
15957,0.50,-0.16,-0.85,0.02,9.68,-3.34,-1.77,-0.88,-1.54,-0.03,0.55,0.03,-0.83,-0.01,10.08,0.98,-1.86,0.24,-1.67,0.06
15977,0.50,-0.16,-0.85,0.02,10.41,-3.87,-1.88,-0.88,-1.54,-0.03,0.51,0.02,-0.86,-0.01,10.08,0.98,-1.86,0.24,-1.67,0.06
15997,0.51,-0.17,-0.84,-0.00,10.41,-3.87,-1.88,-0.88,-1.54,-0.03,0.51,0.02,-0.86,-0.01,13.56,1.51,-1.90,0.24,-1.67,0.06
16017,0.51,-0.17,-0.84,-0.00,13.89,-3.95,-0.50,-0.88,-1.54,-0.03,0.47,0.01,-0.88,-0.01,13.56,1.51,-1.90,0.24,-1.67,0.06
16037,0.54,-0.17,-0.83,-0.03,13.89,-3.95,-0.50,-0.88,-1.54,-0.03,0.47,0.01,-0.88,-0.01,14.26,2.24,-0.60,0.24,-1.67,0.06
16057,0.54,-0.17,-0.83,-0.03,13.89,-3.95,-0.50,-0.94,1.22,-0.23,0.41,-0.00,-0.91,-0.02,14.26,2.24,-0.60,0.24,-1.67,0.06
16077,0.57,-0.17,-0.80,-0.04,13.89,-3.95,-0.50,-0.94,1.22,-0.23,0.41,-0.00,-0.91,-0.02,18.32,4.73,3.31,0.24,-1.67,0.06
16097,0.57,-0.17,-0.80,-0.04,14.84,-1.92,3.86,-0.94,1.22,-0.23,0.35,-0.02,-0.93,-0.06,18.32,4.73,3.31,0.24,-1.67,0.06
16117,0.61,-0.15,-0.77,-0.05,14.84,-1.92,3.86,-0.94,1.22,-0.23,0.35,-0.02,-0.93,-0.06,13.72,-3.70,-5.81,0.24,-1.67,0.06
16137,0.61,-0.15,-0.77,-0.05,12.09,-0.77,-5.56,-0.94,1.22,-0.23,0.30,-0.03,-0.95,-0.06,13.72,-3.70,-5.81,0.24,-1.67,0.06
16157,0.65,-0.16,-0.74,-0.06,12.09,-0.77,-5.56,-0.94,1.22,-0.23,0.30,-0.03,-0.95,-0.06,9.55,-4.50,-10.45,0.24,-1.67,0.06
16177,0.65,-0.16,-0.74,-0.06,14.62,-5.56,-8.05,-0.94,1.22,-0.23,0.29,-0.04,-0.95,-0.07,9.55,-4.50,-10.45,0.24,-1.67,0.06
16197,0.69,-0.16,-0.70,-0.04,14.62,-5.56,-8.05,-0.94,1.22,-0.23,0.29,-0.04,-0.95,-0.07,7.59,-0.06,1.55,0.24,-1.67,0.06
16217,0.69,-0.16,-0.70,-0.04,11.06,-2.99,-5.02,-0.94,1.22,-0.23,0.32,-0.05,-0.95,-0.06,7.59,-0.06,1.55,0.24,-1.67,0.06
16237,0.72,-0.15,-0.67,-0.03,11.06,-2.99,-5.02,-0.94,1.22,-0.23,0.32,-0.05,-0.95,-0.06,7.59,-0.06,1.55,1.45,2.54,0.28
16257,0.72,-0.15,-0.67,-0.03,7.92,-2.15,-5.18,-0.94,1.22,-0.23,0.37,-0.04,-0.93,-0.04,7.59,-0.06,1.55,1.45,2.54,0.28
16277,0.75,-0.15,-0.64,-0.02,7.92,-2.15,-5.18,-0.94,1.22,-0.23,0.37,-0.04,-0.93,-0.04,3.95,-0.79,-4.16,1.45,2.54,0.28
16297,0.75,-0.15,-0.64,-0.02,4.96,-2.84,-4.56,-0.94,1.22,-0.23,0.45,-0.03,-0.89,-0.03,3.95,-0.79,-4.16,1.45,2.54,0.28
16317,0.77,-0.13,-0.63,0.02,4.96,-2.84,-4.56,-0.94,1.22,-0.23,0.45,-0.03,-0.89,-0.03,3.95,-0.79,-4.16,0.65,4.82,-0.43
16337,0.77,-0.13,-0.63,0.02,3.86,-3.30,-5.37,-0.94,1.22,-0.23,0.54,-0.01,-0.84,-0.02,3.95,-0.79,-4.16,0.65,4.82,-0.43
16357,0.77,-0.10,-0.62,0.05,3.86,-3.30,-5.37,-0.94,1.22,-0.23,0.54,-0.01,-0.84,-0.02,3.95,-0.79,-4.16,-0.09,5.03,-0.77
16377,0.77,-0.10,-0.62,0.05,4.85,1.03,-3.34,-0.94,1.22,-0.23,0.62,0.00,-0.78,-0.03,3.95,-0.79,-4.16,-0.09,5.03,-0.77
16397,0.77,-0.08,-0.63,0.07,4.85,1.03,-3.34,-0.94,1.22,-0.23,0.62,0.00,-0.78,-0.03,11.54,-1.93,-8.88,-0.09,5.03,-0.77
16417,0.77,-0.08,-0.63,0.07,8.22,-0.16,0.80,-0.94,1.22,-0.23,0.69,0.03,-0.72,-0.03,11.54,-1.93,-8.88,-0.09,5.03,-0.77
16437,0.78,-0.08,-0.62,0.09,8.22,-0.16,0.80,-0.94,1.22,-0.23,0.69,0.03,-0.72,-0.03,9.43,-0.44,-7.38,-0.09,5.03,-0.77
16457,0.78,-0.08,-0.62,0.09,8.95,1.18,3.94,-0.94,1.22,-0.23,0.74,0.04,-0.67,-0.03,9.43,-0.44,-7.38,-0.09,5.03,-0.77
16477,0.77,-0.08,-0.62,0.10,8.95,1.18,3.94,-0.94,1.22,-0.23,0.74,0.04,-0.67,-0.03,8.85,3.43,-6.27,-0.09,5.03,-0.77
16497,0.77,-0.08,-0.62,0.10,8.95,1.18,3.94,0.33,-0.48,0.48,0.77,0.01,-0.64,-0.05,8.85,3.43,-6.27,-0.09,5.03,-0.77
16517,0.77,-0.08,-0.63,0.11,8.95,1.18,3.94,0.33,-0.48,0.48,0.77,0.01,-0.64,-0.05,6.60,-0.44,-6.12,-0.09,5.03,-0.77
16537,0.77,-0.08,-0.63,0.11,9.75,-1.92,3.21,0.33,-0.48,0.48,0.77,-0.00,-0.64,-0.04,6.60,-0.44,-6.12,-0.09,5.03,-0.77
16557,0.76,-0.09,-0.63,0.12,9.75,-1.92,3.21,0.33,-0.48,0.48,0.77,-0.00,-0.64,-0.04,6.33,1.67,-8.22,-0.09,5.03,-0.77
16577,0.76,-0.09,-0.63,0.12,9.75,-1.92,3.21,-0.37,0.75,0.40,0.75,0.02,-0.66,-0.02,6.33,1.67,-8.22,-0.09,5.03,-0.77
16597,0.75,-0.10,-0.64,0.12,9.75,-1.92,3.21,-0.37,0.75,0.40,0.75,0.02,-0.66,-0.02,17.82,9.67,15.87,-0.09,5.03,-0.77
16617,0.75,-0.10,-0.64,0.12,39.17,-15.21,8.42,-0.37,0.75,0.40,0.73,0.05,-0.68,0.01,17.82,9.67,15.87,-0.09,5.03,-0.77
16637,0.75,-0.08,-0.64,0.14,39.17,-15.21,8.42,-0.37,0.75,0.40,0.73,0.05,-0.68,0.01,10.23,-0.29,-0.64,-0.09,5.03,-0.77
16657,0.75,-0.08,-0.64,0.14,39.17,-15.21,8.42,-1.65,-2.16,-1.20,0.70,0.06,-0.71,0.03,10.23,-0.29,-0.64,-0.09,5.03,-0.77
16677,0.74,-0.09,-0.65,0.11,39.17,-15.21,8.42,-1.65,-2.16,-1.20,0.70,0.06,-0.71,0.03,10.23,-0.29,-0.64,-0.02,-1.79,0.54
16697,0.74,-0.09,-0.65,0.11,5.54,-5.91,-0.96,-1.65,-2.16,-1.20,0.67,0.05,-0.74,0.03,10.23,-0.29,-0.64,-0.02,-1.79,0.54
16717,0.73,-0.12,-0.67,0.11,5.54,-5.91,-0.96,-1.65,-2.16,-1.20,0.67,0.05,-0.74,0.03,10.23,-0.29,-0.64,-0.44,-1.46,0.36
16737,0.73,-0.12,-0.67,0.11,8.76,-2.99,-1.80,-1.65,-2.16,-1.20,0.66,0.05,-0.75,0.03,10.23,-0.29,-0.64,-0.44,-1.46,0.36
16757,0.71,-0.11,-0.69,0.11,8.76,-2.99,-1.80,-1.65,-2.16,-1.20,0.66,0.05,-0.75,0.03,9.96,0.36,-3.89,-0.44,-1.46,0.36
16777,0.71,-0.11,-0.69,0.11,9.14,-3.45,-3.61,-1.65,-2.16,-1.20,0.64,0.05,-0.76,0.03,9.96,0.36,-3.89,-0.44,-1.46,0.36
16797,0.69,-0.11,-0.71,0.10,9.14,-3.45,-3.61,-1.65,-2.16,-1.20,0.64,0.05,-0.76,0.03,9.47,-0.44,-3.05,-0.44,-1.46,0.36
16817,0.69,-0.11,-0.71,0.10,8.68,-3.15,-1.96,-1.65,-2.16,-1.20,0.63,0.04,-0.77,0.03,9.47,-0.44,-3.05,-0.44,-1.46,0.36
16837,0.66,-0.11,-0.74,0.10,8.68,-3.15,-1.96,-1.65,-2.16,-1.20,0.63,0.04,-0.77,0.03,9.51,-0.32,-2.75,-0.44,-1.46,0.36
16857,0.66,-0.11,-0.74,0.10,8.88,-1.69,-2.04,-1.65,-2.16,-1.20,0.62,0.04,-0.78,0.02,9.51,-0.32,-2.75,-0.44,-1.46,0.36
16877,0.63,-0.11,-0.76,0.09,8.88,-1.69,-2.04,-1.65,-2.16,-1.20,0.62,0.04,-0.78,0.02,9.47,-0.02,-1.56,-0.44,-1.46,0.36
16897,0.63,-0.11,-0.76,0.09,9.18,-3.57,-1.38,-1.65,-2.16,-1.20,0.61,0.03,-0.79,0.01,9.47,-0.02,-1.56,-0.44,-1.46,0.36
16917,0.60,-0.12,-0.79,0.08,9.18,-3.57,-1.38,-1.65,-2.16,-1.20,0.61,0.03,-0.79,0.01,9.24,1.09,-1.79,-0.44,-1.46,0.36
16937,0.60,-0.12,-0.79,0.08,8.41,-1.73,-1.57,-1.65,-2.16,-1.20,0.60,0.03,-0.80,0.01,9.24,1.09,-1.79,-0.44,-1.46,0.36
16957,0.56,-0.13,-0.82,0.06,8.41,-1.73,-1.57,-1.65,-2.16,-1.20,0.60,0.03,-0.80,0.01,9.16,0.02,-1.25,-0.44,-1.46,0.36
16977,0.56,-0.13,-0.82,0.06,8.80,-3.11,-2.27,-1.65,-2.16,-1.20,0.59,0.02,-0.81,-0.00,9.16,0.02,-1.25,-0.44,-1.46,0.36
16997,0.53,-0.13,-0.84,0.05,8.80,-3.11,-2.27,-1.65,-2.16,-1.20,0.59,0.02,-0.81,-0.00,9.43,-0.17,-0.79,-0.44,-1.46,0.36
17017,0.53,-0.13,-0.84,0.05,8.80,-3.11,-2.27,-0.63,-1.57,-0.05,0.57,0.02,-0.82,-0.00,9.43,-0.17,-0.79,-0.44,-1.46,0.36
17037,0.50,-0.14,-0.85,0.04,8.80,-3.11,-2.27,-0.63,-1.57,-0.05,0.57,0.02,-0.82,-0.00,9.24,0.10,-0.45,-0.44,-1.46,0.36
17057,0.50,-0.14,-0.85,0.04,10.75,-2.27,-0.73,-0.63,-1.57,-0.05,0.54,0.02,-0.84,-0.00,9.24,0.10,-0.45,-0.44,-1.46,0.36
17077,0.49,-0.16,-0.85,0.02,10.75,-2.27,-0.73,-0.63,-1.57,-0.05,0.54,0.02,-0.84,-0.00,9.24,0.10,-0.45,0.02,-1.77,0.03
17097,0.49,-0.16,-0.85,0.02,10.75,-2.27,-0.73,-1.68,0.08,0.13,0.50,0.02,-0.86,-0.01,9.24,0.10,-0.45,0.02,-1.77,0.03
17117,0.50,-0.17,-0.85,-0.01,10.75,-2.27,-0.73,-1.68,0.08,0.13,0.50,0.02,-0.86,-0.01,12.72,1.29,-2.44,0.02,-1.77,0.03
17137,0.50,-0.17,-0.85,-0.01,14.39,-4.83,1.22,-1.68,0.08,0.13,0.46,0.01,-0.89,-0.01,12.72,1.29,-2.44,0.02,-1.77,0.03
17157,0.51,-0.18,-0.84,-0.03,14.39,-4.83,1.22,-1.68,0.08,0.13,0.46,0.01,-0.89,-0.01,12.72,1.29,-2.44,-0.53,-3.07,0.29
17177,0.51,-0.18,-0.84,-0.03,19.06,-5.06,6.35,-1.68,0.08,0.13,0.40,-0.00,-0.92,-0.02,12.72,1.29,-2.44,-0.53,-3.07,0.29
17197,0.55,-0.17,-0.82,-0.05,19.06,-5.06,6.35,-1.68,0.08,0.13,0.40,-0.00,-0.92,-0.02,20.34,7.22,6.22,-0.53,-3.07,0.29
17217,0.55,-0.17,-0.82,-0.05,15.65,-2.80,4.48,-1.68,0.08,0.13,0.33,-0.02,-0.94,-0.06,20.34,7.22,6.22,-0.53,-3.07,0.29
17237,0.60,-0.16,-0.78,-0.06,15.65,-2.80,4.48,-1.68,0.08,0.13,0.33,-0.02,-0.94,-0.06,14.83,-7.45,-8.72,-0.53,-3.07,0.29
17257,0.60,-0.16,-0.78,-0.06,11.32,-3.76,-7.17,-1.68,0.08,0.13,0.29,-0.02,-0.96,-0.05,14.83,-7.45,-8.72,-0.53,-3.07,0.29
17277,0.64,-0.16,-0.75,-0.04,11.32,-3.76,-7.17,-1.68,0.08,0.13,0.29,-0.02,-0.96,-0.05,8.51,-3.35,-9.64,-0.53,-3.07,0.29
17297,0.64,-0.16,-0.75,-0.04,14.31,-3.80,-8.13,-1.68,0.08,0.13,0.28,-0.03,-0.96,-0.05,8.51,-3.35,-9.64,-0.53,-3.07,0.29
17317,0.69,-0.15,-0.71,-0.03,14.31,-3.80,-8.13,-1.68,0.08,0.13,0.28,-0.03,-0.96,-0.05,7.06,1.32,0.17,-0.53,-3.07,0.29
17337,0.69,-0.15,-0.71,-0.03,13.01,-1.46,-5.68,-1.68,0.08,0.13,0.31,-0.04,-0.95,-0.05,7.06,1.32,0.17,-0.53,-3.07,0.29
17357,0.73,-0.15,-0.67,-0.02,13.01,-1.46,-5.68,-1.68,0.08,0.13,0.31,-0.04,-0.95,-0.05,4.57,-2.39,-4.74,-0.53,-3.07,0.29
17377,0.73,-0.15,-0.67,-0.02,7.41,-2.30,-6.21,-1.68,0.08,0.13,0.38,-0.03,-0.92,-0.03,4.57,-2.39,-4.74,-0.53,-3.07,0.29
17397,0.75,-0.14,-0.64,-0.00,7.41,-2.30,-6.21,-1.68,0.08,0.13,0.38,-0.03,-0.92,-0.03,4.18,-0.06,-4.35,-0.53,-3.07,0.29
17417,0.75,-0.14,-0.64,-0.00,5.08,-2.57,-5.56,-1.68,0.08,0.13,0.46,-0.02,-0.88,-0.01,4.18,-0.06,-4.35,-0.53,-3.07,0.29
17437,0.77,-0.13,-0.62,0.02,5.08,-2.57,-5.56,-1.68,0.08,0.13,0.46,-0.02,-0.88,-0.01,4.72,2.70,-5.20,-0.53,-3.07,0.29
17457,0.77,-0.13,-0.62,0.02,5.08,-2.57,-5.56,1.63,0.38,0.51,0.56,-0.01,-0.83,-0.02,4.72,2.70,-5.20,-0.53,-3.07,0.29
17477,0.77,-0.11,-0.62,0.05,5.08,-2.57,-5.56,1.63,0.38,0.51,0.56,-0.01,-0.83,-0.02,8.28,1.97,-6.61,-0.53,-3.07,0.29
17497,0.77,-0.11,-0.62,0.05,3.05,1.07,-5.17,1.63,0.38,0.51,0.65,-0.01,-0.76,-0.05,8.28,1.97,-6.61,-0.53,-3.07,0.29
17517,0.77,-0.10,-0.63,0.06,3.05,1.07,-5.17,1.63,0.38,0.51,0.65,-0.01,-0.76,-0.05,13.14,0.10,-9.98,-0.53,-3.07,0.29
17537,0.77,-0.10,-0.63,0.06,3.05,1.07,-5.17,0.79,-0.13,0.22,0.73,0.01,-0.68,-0.06,13.14,0.10,-9.98,-0.53,-3.07,0.29
17557,0.77,-0.09,-0.63,0.08,3.05,1.07,-5.17,0.79,-0.13,0.22,0.73,0.01,-0.68,-0.06,11.39,1.09,-6.61,-0.53,-3.07,0.29
17577,0.77,-0.09,-0.63,0.08,11.13,-0.43,7.89,0.79,-0.13,0.22,0.78,0.02,-0.62,-0.07,11.39,1.09,-6.61,-0.53,-3.07,0.29
17597,0.77,-0.09,-0.63,0.09,11.13,-0.43,7.89,0.79,-0.13,0.22,0.78,0.02,-0.62,-0.07,3.91,-0.90,-8.00,-0.53,-3.07,0.29
17617,0.77,-0.09,-0.63,0.09,11.13,-0.43,7.89,0.74,-0.58,0.37,0.80,0.01,-0.60,-0.07,3.91,-0.90,-8.00,-0.53,-3.07,0.29
17637,0.76,-0.09,-0.63,0.09,11.13,-0.43,7.89,0.74,-0.58,0.37,0.80,0.01,-0.60,-0.07,3.87,0.79,-7.23,-0.53,-3.07,0.29
17657,0.76,-0.09,-0.63,0.09,12.78,-1.35,5.78,0.74,-0.58,0.37,0.77,0.00,-0.63,-0.06,3.87,0.79,-7.23,-0.53,-3.07,0.29
17677,0.77,-0.10,-0.62,0.09,12.78,-1.35,5.78,0.74,-0.58,0.37,0.77,0.00,-0.63,-0.06,18.63,10.94,8.48,-0.53,-3.07,0.29
17697,0.77,-0.10,-0.62,0.09,6.92,2.06,-3.84,0.74,-0.58,0.37,0.75,0.04,-0.66,-0.04,18.63,10.94,8.48,-0.53,-3.07,0.29
17717,0.77,-0.10,-0.63,0.10,6.92,2.06,-3.84,0.74,-0.58,0.37,0.75,0.04,-0.66,-0.04,14.03,1.17,-1.25,-0.53,-3.07,0.29
17737,0.77,-0.10,-0.63,0.10,15.80,-10.58,-2.30,0.74,-0.58,0.37,0.72,0.06,-0.69,-0.01,14.03,1.17,-1.25,-0.53,-3.07,0.29
17757,0.75,-0.10,-0.65,0.09,15.80,-10.58,-2.30,0.74,-0.58,0.37,0.72,0.06,-0.69,-0.01,10.31,-0.75,-4.43,-0.53,-3.07,0.29
17777,0.75,-0.10,-0.65,0.09,7.84,-5.41,-6.55,0.74,-0.58,0.37,0.70,0.06,-0.71,0.01,10.31,-0.75,-4.43,-0.53,-3.07,0.29
17797,0.74,-0.11,-0.66,0.09,7.84,-5.41,-6.55,0.74,-0.58,0.37,0.70,0.06,-0.71,0.01,9.09,-0.94,-5.04,-0.53,-3.07,0.29
17817,0.74,-0.11,-0.66,0.09,9.06,-4.87,-4.53,0.74,-0.58,0.37,0.68,0.06,-0.73,0.01,9.09,-0.94,-5.04,-0.53,-3.07,0.29
17837,0.72,-0.11,-0.68,0.09,9.06,-4.87,-4.53,0.74,-0.58,0.37,0.68,0.06,-0.73,0.01,9.31,0.25,-2.63,-0.53,-3.07,0.29
17857,0.72,-0.11,-0.68,0.09,8.64,-1.73,-1.96,0.74,-0.58,0.37,0.67,0.06,-0.74,0.02,9.31,0.25,-2.63,-0.53,-3.07,0.29
17877,0.70,-0.11,-0.70,0.09,8.64,-1.73,-1.96,0.74,-0.58,0.37,0.67,0.06,-0.74,0.02,9.31,0.25,-2.63,0.25,-0.98,0.24
17897,0.70,-0.11,-0.70,0.09,8.64,-1.73,-1.96,-0.66,-1.55,-0.05,0.65,0.05,-0.76,0.01,9.31,0.25,-2.63,0.25,-0.98,0.24
17917,0.67,-0.12,-0.73,0.08,8.64,-1.73,-1.96,-0.66,-1.55,-0.05,0.65,0.05,-0.76,0.01,9.47,0.02,-1.71,0.25,-0.98,0.24
17937,0.67,-0.12,-0.73,0.08,8.53,-2.30,-1.73,-0.66,-1.55,-0.05,0.64,0.04,-0.76,0.00,9.47,0.02,-1.71,0.25,-0.98,0.24
17957,0.65,-0.12,-0.75,0.07,8.53,-2.30,-1.73,-0.66,-1.55,-0.05,0.64,0.04,-0.76,0.00,9.16,-0.21,-1.63,0.25,-0.98,0.24
17977,0.65,-0.12,-0.75,0.07,8.76,-4.34,-1.12,-0.66,-1.55,-0.05,0.63,0.03,-0.77,-0.01,9.16,-0.21,-1.63,0.25,-0.98,0.24
17997,0.62,-0.13,-0.77,0.06,8.76,-4.34,-1.12,-0.66,-1.55,-0.05,0.63,0.03,-0.77,-0.01,9.62,0.02,-1.56,0.25,-0.98,0.24
18017,0.62,-0.13,-0.77,0.06,8.26,-3.34,-1.92,-0.66,-1.55,-0.05,0.62,0.03,-0.78,-0.01,9.62,0.02,-1.56,0.25,-0.98,0.24
18037,0.59,-0.13,-0.80,0.06,8.26,-3.34,-1.92,-0.66,-1.55,-0.05,0.62,0.03,-0.78,-0.01,9.01,0.90,-1.06,0.25,-0.98,0.24
18057,0.59,-0.13,-0.80,0.06,8.26,-3.34,-1.92,-0.86,-2.12,-0.08,0.61,0.03,-0.79,-0.01,9.01,0.90,-1.06,0.25,-0.98,0.24
18077,0.55,-0.14,-0.82,0.05,8.26,-3.34,-1.92,-0.86,-2.12,-0.08,0.61,0.03,-0.79,-0.01,9.39,0.36,-1.25,0.25,-0.98,0.24
18097,0.55,-0.14,-0.82,0.05,10.25,-2.65,-0.89,-0.86,-2.12,-0.08,0.59,0.03,-0.81,-0.01,9.39,0.36,-1.25,0.25,-0.98,0.24
18117,0.52,-0.15,-0.84,0.04,10.25,-2.65,-0.89,-0.86,-2.12,-0.08,0.59,0.03,-0.81,-0.01,8.93,-0.71,-0.41,0.25,-0.98,0.24
18137,0.52,-0.15,-0.84,0.04,9.53,-3.03,-0.46,-0.86,-2.12,-0.08,0.56,0.03,-0.83,-0.01,8.93,-0.71,-0.41,0.25,-0.98,0.24
18157,0.50,-0.16,-0.85,0.02,9.53,-3.03,-0.46,-0.86,-2.12,-0.08,0.56,0.03,-0.83,-0.01,9.55,0.48,-0.33,0.25,-0.98,0.24
18177,0.50,-0.16,-0.85,0.02,11.17,-3.68,-0.35,-0.86,-2.12,-0.08,0.53,0.02,-0.85,-0.01,9.55,0.48,-0.33,0.25,-0.98,0.24
18197,0.50,-0.17,-0.85,-0.01,11.17,-3.68,-0.35,-0.86,-2.12,-0.08,0.53,0.02,-0.85,-0.01,11.89,2.01,-1.75,0.25,-0.98,0.24
18217,0.50,-0.17,-0.85,-0.01,12.82,-3.95,-0.85,-0.86,-2.12,-0.08,0.49,0.02,-0.87,-0.01,11.89,2.01,-1.75,0.25,-0.98,0.24
18237,0.51,-0.18,-0.84,-0.03,12.82,-3.95,-0.85,-0.86,-2.12,-0.08,0.49,0.02,-0.87,-0.01,11.89,2.01,-1.75,-0.19,-2.62,0.22
18257,0.51,-0.18,-0.84,-0.03,15.43,-4.60,4.63,-0.86,-2.12,-0.08,0.43,0.00,-0.90,-0.02,11.89,2.01,-1.75,-0.19,-2.62,0.22
18277,0.54,-0.18,-0.82,-0.05,15.43,-4.60,4.63,-0.86,-2.12,-0.08,0.43,0.00,-0.90,-0.02,19.39,6.38,5.11,-0.19,-2.62,0.22
18297,0.54,-0.18,-0.82,-0.05,16.81,0.72,4.78,-0.86,-2.12,-0.08,0.37,-0.02,-0.93,-0.05,19.39,6.38,5.11,-0.19,-2.62,0.22
18317,0.58,-0.17,-0.79,-0.06,16.81,0.72,4.78,-0.86,-2.12,-0.08,0.37,-0.02,-0.93,-0.05,19.39,6.38,5.11,-2.10,-3.34,0.47
18337,0.58,-0.17,-0.79,-0.06,11.64,-1.04,-4.64,-0.86,-2.12,-0.08,0.31,-0.04,-0.95,-0.07,19.39,6.38,5.11,-2.10,-3.34,0.47
18357,0.62,-0.18,-0.76,-0.07,11.64,-1.04,-4.64,-0.86,-2.12,-0.08,0.31,-0.04,-0.95,-0.07,11.69,-5.80,-10.06,-2.10,-3.34,0.47
18377,0.62,-0.18,-0.76,-0.07,15.58,-5.60,-6.79,-0.86,-2.12,-0.08,0.29,-0.05,-0.95,-0.06,11.69,-5.80,-10.06,-2.10,-3.34,0.47
18397,0.67,-0.17,-0.72,-0.05,15.58,-5.60,-6.79,-0.86,-2.12,-0.08,0.29,-0.05,-0.95,-0.06,5.41,-0.09,-5.96,-2.10,-3.34,0.47
18420,0.67,-0.17,-0.72,-0.05,15.58,-5.60,-6.79,0.71,2.59,0.65,0.31,-0.05,-0.95,-0.05,5.41,-0.09,-5.96,-2.10,-3.34,0.47
18437,0.72,-0.17,-0.67,-0.04,15.58,-5.60,-6.79,0.71,2.59,0.65,0.31,-0.05,-0.95,-0.05,5.25,-2.55,-4.05,-2.10,-3.34,0.47
18457,0.72,-0.17,-0.67,-0.04,8.91,-2.54,-5.75,0.71,2.59,0.65,0.36,-0.05,-0.93,-0.03,5.25,-2.55,-4.05,-2.10,-3.34,0.47
18477,0.73,-0.17,-0.66,-0.03,8.91,-2.54,-5.75,0.71,2.59,0.65,0.36,-0.05,-0.93,-0.03,4.18,1.17,-3.74,-2.10,-3.34,0.47
18497,0.73,-0.17,-0.66,-0.03,8.91,-2.54,-5.75,1.36,1.65,0.90,0.44,-0.05,-0.90,-0.02,4.18,1.17,-3.74,-2.10,-3.34,0.47
18517,0.76,-0.15,-0.63,0.00,8.91,-2.54,-5.75,1.36,1.65,0.90,0.44,-0.05,-0.90,-0.02,5.02,2.47,-5.23,-2.10,-3.34,0.47
18537,0.76,-0.15,-0.63,0.00,4.09,-1.39,-5.68,1.36,1.65,0.90,0.52,-0.04,-0.85,-0.04,5.02,2.47,-5.23,-2.10,-3.34,0.47
18557,0.77,-0.13,-0.62,0.03,4.09,-1.39,-5.68,1.36,1.65,0.90,0.52,-0.04,-0.85,-0.04,7.90,1.78,-5.43,-2.10,-3.34,0.47
18577,0.77,-0.13,-0.62,0.03,3.70,1.37,-5.68,1.36,1.65,0.90,0.61,-0.03,-0.79,-0.05,7.90,1.78,-5.43,-2.10,-3.34,0.47
18597,0.77,-0.12,-0.63,0.05,3.70,1.37,-5.68,1.36,1.65,0.90,0.61,-0.03,-0.79,-0.05,10.50,2.51,-7.19,-2.10,-3.34,0.47
18617,0.77,-0.12,-0.63,0.05,6.15,1.60,-2.46,1.36,1.65,0.90,0.70,-0.03,-0.71,-0.08,10.50,2.51,-7.19,-2.10,-3.34,0.47
18637,0.77,-0.11,-0.63,0.06,6.15,1.60,-2.46,1.36,1.65,0.90,0.70,-0.03,-0.71,-0.08,12.80,2.32,-7.04,-2.10,-3.34,0.47
18657,0.77,-0.11,-0.63,0.06,8.52,0.76,1.76,1.36,1.65,0.90,0.76,-0.02,-0.64,-0.09,12.80,2.32,-7.04,-2.10,-3.34,0.47
18677,0.77,-0.10,-0.63,0.08,8.52,0.76,1.76,1.36,1.65,0.90,0.76,-0.02,-0.64,-0.09,12.46,1.44,-6.19,-2.10,-3.34,0.47
18697,0.77,-0.10,-0.63,0.08,13.20,-0.96,11.30,1.36,1.65,0.90,0.80,-0.01,-0.60,-0.09,12.46,1.44,-6.19,-2.10,-3.34,0.47
18717,0.77,-0.10,-0.63,0.09,13.20,-0.96,11.30,1.36,1.65,0.90,0.80,-0.01,-0.60,-0.09,3.07,0.29,-7.04,-2.10,-3.34,0.47
18737,0.77,-0.10,-0.63,0.09,12.93,-1.50,7.96,1.36,1.65,0.90,0.79,-0.01,-0.61,-0.08,3.07,0.29,-7.04,-2.10,-3.34,0.47
18757,0.78,-0.10,-0.61,0.09,12.93,-1.50,7.96,1.36,1.65,0.90,0.79,-0.01,-0.61,-0.08,8.93,1.59,-3.82,-2.10,-3.34,0.47
18777,0.78,-0.10,-0.61,0.09,12.93,-1.50,7.96,0.27,0.41,0.26,0.77,0.01,-0.64,-0.06,8.93,1.59,-3.82,-2.10,-3.34,0.47
18797,0.76,-0.11,-0.64,0.09,12.93,-1.50,7.96,0.27,0.41,0.26,0.77,0.01,-0.64,-0.06,9.70,2.93,0.13,-2.10,-3.34,0.47
18817,0.76,-0.11,-0.64,0.09,22.24,-4.72,2.37,0.27,0.41,0.26,0.74,0.03,-0.67,-0.04,9.70,2.93,0.13,-2.10,-3.34,0.47
18837,0.76,-0.11,-0.63,0.10,22.24,-4.72,2.37,0.27,0.41,0.26,0.74,0.03,-0.67,-0.04,10.84,1.29,-3.62,-2.10,-3.34,0.47
18857,0.76,-0.11,-0.63,0.10,22.24,-4.72,2.37,-0.94,-2.21,-0.11,0.72,0.04,-0.69,-0.02,10.84,1.29,-3.62,-2.10,-3.34,0.47
18877,0.74,-0.12,-0.65,0.09,22.24,-4.72,2.37,-0.94,-2.21,-0.11,0.72,0.04,-0.69,-0.02,8.20,1.40,-3.55,-2.10,-3.34,0.47
18897,0.74,-0.12,-0.65,0.09,6.08,-5.33,-2.73,-0.94,-2.21,-0.11,0.70,0.04,-0.72,-0.01,8.20,1.40,-3.55,-2.10,-3.34,0.47
18917,0.73,-0.13,-0.66,0.08,6.08,-5.33,-2.73,-0.94,-2.21,-0.11,0.70,0.04,-0.72,-0.01,11.46,-1.32,-2.98,-2.10,-3.34,0.47
18937,0.73,-0.13,-0.66,0.08,6.08,-5.33,-2.73,-0.19,-1.00,0.30,0.68,0.03,-0.73,0.00,11.46,-1.32,-2.98,-2.10,-3.34,0.47
18957,0.72,-0.13,-0.68,0.08,6.08,-5.33,-2.73,-0.19,-1.00,0.30,0.68,0.03,-0.73,0.00,9.20,0.32,-2.63,-2.10,-3.34,0.47
18977,0.72,-0.13,-0.68,0.08,9.02,-0.93,-2.07,-0.19,-1.00,0.30,0.66,0.03,-0.75,0.00,9.20,0.32,-2.63,-2.10,-3.34,0.47
18997,0.70,-0.14,-0.70,0.08,9.02,-0.93,-2.07,-0.19,-1.00,0.30,0.66,0.03,-0.75,0.00,9.70,-0.40,-3.05,-2.10,-3.34,0.47
19017,0.70,-0.14,-0.70,0.08,9.02,-0.93,-2.07,-0.91,-1.39,-0.07,0.65,0.02,-0.76,-0.00,9.70,-0.40,-3.05,-2.10,-3.34,0.47
19037,0.67,-0.15,-0.72,0.07,9.02,-0.93,-2.07,-0.91,-1.39,-0.07,0.65,0.02,-0.76,-0.00,9.70,-0.40,-3.05,-0.58,-0.89,0.27
19057,0.67,-0.15,-0.72,0.07,8.56,-3.38,-1.96,-0.91,-1.39,-0.07,0.64,0.00,-0.77,-0.01,9.70,-0.40,-3.05,-0.58,-0.89,0.27
19077,0.65,-0.16,-0.74,0.06,8.56,-3.38,-1.96,-0.91,-1.39,-0.07,0.64,0.00,-0.77,-0.01,9.36,0.02,-1.67,-0.58,-0.89,0.27
19097,0.65,-0.16,-0.74,0.06,8.72,-3.95,-1.69,-0.91,-1.39,-0.07,0.63,-0.01,-0.78,-0.02,9.36,0.02,-1.67,-0.58,-0.89,0.27
19117,0.62,-0.16,-0.76,0.05,8.72,-3.95,-1.69,-0.91,-1.39,-0.07,0.63,-0.01,-0.78,-0.02,9.36,0.02,-1.67,-0.61,-0.78,0.06
19137,0.62,-0.16,-0.76,0.05,8.95,-2.96,-1.65,-0.91,-1.39,-0.07,0.61,-0.02,-0.79,-0.03,9.36,0.02,-1.67,-0.61,-0.78,0.06
19157,0.59,-0.17,-0.78,0.04,8.95,-2.96,-1.65,-0.91,-1.39,-0.07,0.61,-0.02,-0.79,-0.03,9.16,-0.40,-1.71,-0.61,-0.78,0.06
19177,0.59,-0.17,-0.78,0.04,8.42,-3.38,-1.73,-0.91,-1.39,-0.07,0.60,-0.02,-0.80,-0.04,9.16,-0.40,-1.71,-0.61,-0.78,0.06
19197,0.56,-0.18,-0.81,0.03,8.42,-3.38,-1.73,-0.91,-1.39,-0.07,0.60,-0.02,-0.80,-0.04,9.16,-0.13,-1.10,-0.61,-0.78,0.06
19217,0.56,-0.18,-0.81,0.03,8.76,-3.91,-1.31,-0.91,-1.39,-0.07,0.58,-0.03,-0.81,-0.04,9.16,-0.13,-1.10,-0.61,-0.78,0.06
19237,0.54,-0.19,-0.82,0.02,8.76,-3.91,-1.31,-0.91,-1.39,-0.07,0.58,-0.03,-0.81,-0.04,9.51,0.55,-0.45,-0.61,-0.78,0.06
19257,0.54,-0.19,-0.82,0.02,10.21,-1.88,0.11,-0.91,-1.39,-0.07,0.56,-0.04,-0.83,-0.05,9.51,0.55,-0.45,-0.61,-0.78,0.06
19277,0.52,-0.20,-0.83,0.00,10.21,-1.88,0.11,-0.91,-1.39,-0.07,0.56,-0.04,-0.83,-0.05,9.85,1.40,-0.25,-0.61,-0.78,0.06
19297,0.52,-0.20,-0.83,0.00,10.21,-1.88,0.11,-1.30,-0.04,-0.04,0.52,-0.04,-0.85,-0.05,9.85,1.40,-0.25,-0.61,-0.78,0.06
19317,0.52,-0.21,-0.83,-0.02,10.21,-1.88,0.11,-1.30,-0.04,-0.04,0.52,-0.04,-0.85,-0.05,11.04,1.09,-1.71,-0.61,-0.78,0.06
19337,0.52,-0.21,-0.83,-0.02,10.48,-3.11,0.57,-1.30,-0.04,-0.04,0.48,-0.05,-0.87,-0.05,11.04,1.09,-1.71,-0.61,-0.78,0.06
19357,0.52,-0.22,-0.82,-0.05,10.48,-3.11,0.57,-1.30,-0.04,-0.04,0.48,-0.05,-0.87,-0.05,11.73,3.12,-1.06,-0.61,-0.78,0.06
19377,0.52,-0.22,-0.82,-0.05,10.48,-3.11,0.57,-0.59,1.39,-0.63,0.43,-0.06,-0.90,-0.05,11.73,3.12,-1.06,-0.61,-0.78,0.06
19397,0.55,-0.21,-0.81,-0.07,10.48,-3.11,0.57,-0.59,1.39,-0.63,0.43,-0.06,-0.90,-0.05,17.36,5.50,3.19,-0.61,-0.78,0.06
19417,0.55,-0.21,-0.81,-0.07,17.68,-4.11,6.70,-0.59,1.39,-0.63,0.37,-0.07,-0.93,-0.07,17.36,5.50,3.19,-0.61,-0.78,0.06
19437,0.59,-0.20,-0.78,-0.08,17.68,-4.11,6.70,-0.59,1.39,-0.63,0.37,-0.07,-0.93,-0.07,17.36,5.50,3.19,-1.84,-3.34,-0.00
19457,0.59,-0.20,-0.78,-0.08,12.32,-6.55,-3.68,-0.59,1.39,-0.63,0.31,-0.06,-0.95,-0.06,17.36,5.50,3.19,-1.84,-3.34,-0.00
19477,0.63,-0.19,-0.75,-0.07,12.32,-6.55,-3.68,-0.59,1.39,-0.63,0.31,-0.06,-0.95,-0.06,14.11,-6.57,-9.52,-1.84,-3.34,-0.00
19497,0.63,-0.19,-0.75,-0.07,16.54,-7.90,-6.98,-0.59,1.39,-0.63,0.29,-0.04,-0.96,-0.02,14.11,-6.57,-9.52,-1.84,-3.34,-0.00
19517,0.67,-0.15,-0.73,-0.04,16.54,-7.90,-6.98,-0.59,1.39,-0.63,0.29,-0.04,-0.96,-0.02,14.11,-6.57,-9.52,2.70,-1.10,-0.67
19537,0.67,-0.15,-0.73,-0.04,12.13,-1.35,-7.32,-0.59,1.39,-0.63,0.30,-0.03,-0.95,-0.02,14.11,-6.57,-9.52,2.70,-1.10,-0.67
19557,0.71,-0.13,-0.69,-0.03,12.13,-1.35,-7.32,-0.59,1.39,-0.63,0.30,-0.03,-0.95,-0.02,4.68,-3.62,-3.70,2.70,-1.10,-0.67
19577,0.71,-0.13,-0.69,-0.03,9.14,-2.23,-5.33,-0.59,1.39,-0.63,0.35,-0.01,-0.94,-0.01,4.68,-3.62,-3.70,2.70,-1.10,-0.67
19597,0.74,-0.12,-0.67,-0.01,9.14,-2.23,-5.33,-0.59,1.39,-0.63,0.35,-0.01,-0.94,-0.01,3.45,-1.05,-4.39,2.70,-1.10,-0.67
19617,0.74,-0.12,-0.67,-0.01,6.12,-1.54,-4.75,-0.59,1.39,-0.63,0.42,0.00,-0.91,-0.01,3.45,-1.05,-4.39,2.70,-1.10,-0.67
19637,0.76,-0.10,-0.64,0.02,6.12,-1.54,-4.75,-0.59,1.39,-0.63,0.42,0.00,-0.91,-0.01,5.83,-0.86,-3.93,2.70,-1.10,-0.67
19657,0.76,-0.10,-0.64,0.02,5.42,-1.65,-5.14,-0.59,1.39,-0.63,0.50,0.02,-0.87,-0.01,5.83,-0.86,-3.93,2.70,-1.10,-0.67
19677,0.77,-0.08,-0.63,0.06,5.42,-1.65,-5.14,-0.59,1.39,-0.63,0.50,0.02,-0.87,-0.01,5.14,-0.59,-5.93,2.70,-1.10,-0.67
19697,0.77,-0.08,-0.63,0.06,2.75,1.30,-5.75,-0.59,1.39,-0.63,0.59,0.03,-0.81,-0.03,5.14,-0.59,-5.93,2.70,-1.10,-0.67
19717,0.76,-0.08,-0.64,0.07,2.75,1.30,-5.75,-0.59,1.39,-0.63,0.59,0.03,-0.81,-0.03,10.77,0.06,-7.23,2.70,-1.10,-0.67
19737,0.76,-0.08,-0.64,0.07,2.75,1.30,-5.75,0.33,-0.60,0.41,0.68,0.02,-0.73,-0.05,10.77,0.06,-7.23,2.70,-1.10,-0.67
19757,0.76,-0.08,-0.64,0.08,2.75,1.30,-5.75,0.33,-0.60,0.41,0.68,0.02,-0.73,-0.05,13.07,-1.05,-7.99,2.70,-1.10,-0.67
19777,0.76,-0.08,-0.64,0.08,8.64,-1.00,1.60,0.33,-0.60,0.41,0.75,0.02,-0.66,-0.06,13.07,-1.05,-7.99,2.70,-1.10,-0.67
19797,0.77,-0.08,-0.63,0.10,8.64,-1.00,1.60,0.33,-0.60,0.41,0.75,0.02,-0.66,-0.06,12.15,2.24,-8.07,2.70,-1.10,-0.67
19817,0.77,-0.08,-0.63,0.10,8.64,-1.00,1.60,0.38,0.14,0.71,0.79,0.02,-0.61,-0.07,12.15,2.24,-8.07,2.70,-1.10,-0.67
19837,0.76,-0.08,-0.63,0.11,8.64,-1.00,1.60,0.38,0.14,0.71,0.79,0.02,-0.61,-0.07,4.72,-0.44,-7.31,2.70,-1.10,-0.67
19857,0.76,-0.08,-0.63,0.11,11.66,-2.27,9.34,0.38,0.14,0.71,0.78,0.02,-0.62,-0.06,4.72,-0.44,-7.31,2.70,-1.10,-0.67
19877,0.77,-0.07,-0.62,0.11,11.66,-2.27,9.34,0.38,0.14,0.71,0.78,0.02,-0.62,-0.06,5.33,-0.55,-9.14,2.70,-1.10,-0.67
19897,0.77,-0.07,-0.62,0.11,11.66,-2.27,9.34,0.71,0.85,-0.10,0.76,0.04,-0.65,-0.03,5.33,-0.55,-9.14,2.70,-1.10,-0.67
19917,0.76,-0.08,-0.63,0.11,11.66,-2.27,9.34,0.71,0.85,-0.10,0.76,0.04,-0.65,-0.03,15.90,9.67,6.72,2.70,-1.10,-0.67
19937,0.76,-0.08,-0.63,0.11,9.68,2.25,-4.22,0.71,0.85,-0.10,0.73,0.08,-0.68,-0.00,15.90,9.67,6.72,2.70,-1.10,-0.67
19957,0.75,-0.07,-0.65,0.12,9.68,2.25,-4.22,0.71,0.85,-0.10,0.73,0.08,-0.68,-0.00,12.99,-2.12,-5.20,2.70,-1.10,-0.67
19977,0.75,-0.07,-0.65,0.12,3.66,6.89,-1.80,0.71,0.85,-0.10,0.71,0.10,-0.70,0.02,12.99,-2.12,-5.20,2.70,-1.10,-0.67
19997,0.74,-0.08,-0.65,0.11,3.66,6.89,-1.80,0.71,0.85,-0.10,0.71,0.10,-0.70,0.02,8.32,2.16,-4.70,2.70,-1.10,-0.67
20017,0.74,-0.08,-0.65,0.11,7.76,-5.91,-3.15,0.71,0.85,-0.10,0.68,0.09,-0.73,0.02,8.32,2.16,-4.70,2.70,-1.10,-0.67
20037,0.72,-0.09,-0.68,0.11,7.76,-5.91,-3.15,0.71,0.85,-0.10,0.68,0.09,-0.73,0.02,11.61,-1.32,-4.12,2.70,-1.10,-0.67
20057,0.72,-0.09,-0.68,0.11,9.26,-3.68,-3.45,0.71,0.85,-0.10,0.66,0.09,-0.74,0.03,11.61,-1.32,-4.12,2.70,-1.10,-0.67
20077,0.71,-0.09,-0.69,0.11,9.26,-3.68,-3.45,0.71,0.85,-0.10,0.66,0.09,-0.74,0.03,9.47,1.90,-3.74,2.70,-1.10,-0.67
20097,0.71,-0.09,-0.69,0.11,9.26,-2.00,-3.37,0.71,0.85,-0.10,0.65,0.09,-0.76,0.03,9.47,1.90,-3.74,2.70,-1.10,-0.67
20117,0.67,-0.09,-0.73,0.09,9.26,-2.00,-3.37,0.71,0.85,-0.10,0.65,0.09,-0.76,0.03,10.00,-0.36,-2.82,2.70,-1.10,-0.67
20137,0.67,-0.09,-0.73,0.09,8.64,-3.26,-2.04,0.71,0.85,-0.10,0.64,0.08,-0.77,0.03,10.00,-0.36,-2.82,2.70,-1.10,-0.67
20157,0.66,-0.09,-0.74,0.09,8.64,-3.26,-2.04,0.71,0.85,-0.10,0.64,0.08,-0.77,0.03,9.20,0.10,-1.98,2.70,-1.10,-0.67
20177,0.66,-0.09,-0.74,0.09,8.64,-2.19,-1.73,0.71,0.85,-0.10,0.63,0.07,-0.78,0.02,9.20,0.10,-1.98,2.70,-1.10,-0.67
20197,0.61,-0.10,-0.78,0.08,8.64,-2.19,-1.73,0.71,0.85,-0.10,0.63,0.07,-0.78,0.02,9.20,0.10,-1.98,-0.56,-0.67,0.10
20217,0.61,-0.10,-0.78,0.08,8.95,-3.30,-1.38,0.71,0.85,-0.10,0.62,0.07,-0.78,0.02,9.20,0.10,-1.98,-0.56,-0.67,0.10
20237,0.58,-0.10,-0.80,0.07,8.95,-3.30,-1.38,0.71,0.85,-0.10,0.62,0.07,-0.78,0.02,9.05,1.48,-1.21,-0.56,-0.67,0.10
20257,0.58,-0.10,-0.80,0.07,8.95,-3.30,-1.38,-0.83,-1.96,-0.03,0.60,0.07,-0.79,0.02,9.05,1.48,-1.21,-0.56,-0.67,0.10
20277,0.54,-0.11,-0.83,0.06,8.95,-3.30,-1.38,-0.83,-1.96,-0.03,0.60,0.07,-0.79,0.02,9.09,0.67,-2.09,-0.56,-0.67,0.10
20297,0.54,-0.11,-0.83,0.06,9.45,-2.88,-1.65,-0.83,-1.96,-0.03,0.59,0.07,-0.81,0.01,9.09,0.67,-2.09,-0.56,-0.67,0.10
20317,0.52,-0.12,-0.85,0.05,9.45,-2.88,-1.65,-0.83,-1.96,-0.03,0.59,0.07,-0.81,0.01,8.86,0.48,0.01,-0.56,-0.67,0.10
20337,0.52,-0.12,-0.85,0.05,9.45,-2.88,-1.65,-0.92,-1.38,-0.04,0.56,0.07,-0.82,0.01,8.86,0.48,0.01,-0.56,-0.67,0.10
20357,0.50,-0.13,-0.85,0.02,9.45,-2.88,-1.65,-0.92,-1.38,-0.04,0.56,0.07,-0.82,0.01,9.78,0.44,-0.33,-0.56,-0.67,0.10
20377,0.50,-0.13,-0.85,0.02,10.25,-3.38,-0.96,-0.92,-1.38,-0.04,0.53,0.06,-0.85,0.01,9.78,0.44,-0.33,-0.56,-0.67,0.10
20397,0.50,-0.15,-0.85,-0.00,10.25,-3.38,-0.96,-0.92,-1.38,-0.04,0.53,0.06,-0.85,0.01,11.89,1.32,-1.33,-0.56,-0.67,0.10
20417,0.50,-0.15,-0.85,-0.00,13.73,-4.57,-0.58,-0.92,-1.38,-0.04,0.48,0.06,-0.87,0.01,11.89,1.32,-1.33,-0.56,-0.67,0.10
20437,0.52,-0.15,-0.84,-0.02,13.73,-4.57,-0.58,-0.92,-1.38,-0.04,0.48,0.06,-0.87,0.01,13.95,2.32,-1.98,-0.56,-0.67,0.10
20457,0.52,-0.15,-0.84,-0.02,15.69,-3.49,5.39,-0.92,-1.38,-0.04,0.43,0.05,-0.90,-0.00,13.95,2.32,-1.98,-0.56,-0.67,0.10
20477,0.56,-0.15,-0.81,-0.04,15.69,-3.49,5.39,-0.92,-1.38,-0.04,0.43,0.05,-0.90,-0.00,20.50,6.34,4.65,-0.56,-0.67,0.10
20497,0.56,-0.15,-0.81,-0.04,19.10,-4.30,6.70,-0.92,-1.38,-0.04,0.37,0.02,-0.93,-0.03,20.50,6.34,4.65,-0.56,-0.67,0.10
20517,0.60,-0.14,-0.78,-0.05,19.10,-4.30,6.70,-0.92,-1.38,-0.04,0.37,0.02,-0.93,-0.03,17.40,2.43,2.70,-0.56,-0.67,0.10
20537,0.60,-0.14,-0.78,-0.05,12.13,-2.04,-6.52,-0.92,-1.38,-0.04,0.31,0.01,-0.95,-0.07,17.40,2.43,2.70,-0.56,-0.67,0.10
20557,0.65,-0.14,-0.75,-0.04,12.13,-2.04,-6.52,-0.92,-1.38,-0.04,0.31,0.01,-0.95,-0.07,17.40,2.43,2.70,-1.27,-3.19,-0.06
20577,0.65,-0.14,-0.75,-0.04,17.54,-2.65,-6.59,-0.92,-1.38,-0.04,0.29,0.00,-0.96,-0.05,17.40,2.43,2.70,-1.27,-3.19,-0.06
20597,0.69,-0.14,-0.71,-0.03,17.54,-2.65,-6.59,-0.92,-1.38,-0.04,0.29,0.00,-0.96,-0.05,4.91,0.32,-6.00,-1.27,-3.19,-0.06
20617,0.69,-0.14,-0.71,-0.03,12.82,-1.88,-5.75,-0.92,-1.38,-0.04,0.31,-0.01,-0.95,-0.05,4.91,0.32,-6.00,-1.27,-3.19,-0.06
20637,0.72,-0.15,-0.68,-0.02,12.82,-1.88,-5.75,-0.92,-1.38,-0.04,0.31,-0.01,-0.95,-0.05,4.68,-2.70,-3.62,-1.27,-3.19,-0.06
20657,0.72,-0.15,-0.68,-0.02,12.82,-1.88,-5.75,0.36,2.35,0.67,0.36,-0.01,-0.93,-0.02,4.68,-2.70,-3.62,-1.27,-3.19,-0.06
20677,0.75,-0.14,-0.65,0.00,12.82,-1.88,-5.75,0.36,2.35,0.67,0.36,-0.01,-0.93,-0.02,3.95,-0.02,-4.51,-1.27,-3.19,-0.06
20697,0.75,-0.14,-0.65,0.00,5.62,-2.57,-5.45,0.36,2.35,0.67,0.44,-0.00,-0.90,-0.01,3.95,-0.02,-4.51,-1.27,-3.19,-0.06
20717,0.77,-0.12,-0.63,0.04,5.62,-2.57,-5.45,0.36,2.35,0.67,0.44,-0.00,-0.90,-0.01,4.91,2.20,-5.27,-1.27,-3.19,-0.06
20737,0.77,-0.12,-0.63,0.04,5.62,-2.57,-5.45,1.86,0.82,0.79,0.53,-0.00,-0.85,-0.02,4.91,2.20,-5.27,-1.27,-3.19,-0.06
20757,0.77,-0.10,-0.63,0.06,5.62,-2.57,-5.45,1.86,0.82,0.79,0.53,-0.00,-0.85,-0.02,7.40,2.16,-5.66,-1.27,-3.19,-0.06
20777,0.77,-0.10,-0.63,0.06,3.09,1.30,-6.56,1.86,0.82,0.79,0.63,-0.00,-0.78,-0.04,7.40,2.16,-5.66,-1.27,-3.19,-0.06
20797,0.76,-0.09,-0.63,0.08,3.09,1.30,-6.56,1.86,0.82,0.79,0.63,-0.00,-0.78,-0.04,11.04,1.25,-8.11,-1.27,-3.19,-0.06
20817,0.76,-0.09,-0.63,0.08,3.09,1.30,-6.56,0.58,-0.40,0.34,0.72,-0.01,-0.70,-0.06,11.04,1.25,-8.11,-1.27,-3.19,-0.06
20837,0.76,-0.09,-0.63,0.10,3.09,1.30,-6.56,0.58,-0.40,0.34,0.72,-0.01,-0.70,-0.06,12.41,1.44,-7.19,-1.27,-3.19,-0.06
20857,0.76,-0.09,-0.63,0.10,8.26,-0.85,1.34,0.58,-0.40,0.34,0.78,0.01,-0.62,-0.07,12.41,1.44,-7.19,-1.27,-3.19,-0.06
20877,0.76,-0.09,-0.63,0.11,8.26,-0.85,1.34,0.58,-0.40,0.34,0.78,0.01,-0.62,-0.07,11.35,1.90,-7.07,-1.27,-3.19,-0.06
20897,0.76,-0.09,-0.63,0.11,13.25,-1.23,12.98,0.58,-0.40,0.34,0.80,0.02,-0.59,-0.06,11.35,1.90,-7.07,-1.27,-3.19,-0.06
20917,0.76,-0.08,-0.63,0.12,13.25,-1.23,12.98,0.58,-0.40,0.34,0.80,0.02,-0.59,-0.06,2.38,-0.48,-8.00,-1.27,-3.19,-0.06
20937,0.76,-0.08,-0.63,0.12,12.06,-1.50,7.54,0.58,-0.40,0.34,0.78,0.02,-0.62,-0.04,2.38,-0.48,-8.00,-1.27,-3.19,-0.06
20957,0.76,-0.08,-0.63,0.12,12.06,-1.50,7.54,0.58,-0.40,0.34,0.78,0.02,-0.62,-0.04,11.35,4.85,3.69,-1.27,-3.19,-0.06
20977,0.76,-0.08,-0.63,0.12,2.29,-1.35,-4.22,0.58,-0.40,0.34,0.76,0.06,-0.64,-0.01,11.35,4.85,3.69,-1.27,-3.19,-0.06
20997,0.76,-0.07,-0.63,0.13,2.29,-1.35,-4.22,0.58,-0.40,0.34,0.76,0.06,-0.64,-0.01,11.35,4.85,3.69,3.14,-1.16,-0.25
21017,0.76,-0.07,-0.63,0.13,17.80,-4.03,0.22,0.58,-0.40,0.34,0.73,0.09,-0.67,0.02,11.35,4.85,3.69,3.14,-1.16,-0.25
21037,0.74,-0.08,-0.66,0.12,17.80,-4.03,0.22,0.58,-0.40,0.34,0.73,0.09,-0.67,0.02,9.73,-1.63,-3.55,3.14,-1.16,-0.25
21057,0.74,-0.08,-0.66,0.12,6.88,2.60,-6.82,0.58,-0.40,0.34,0.71,0.10,-0.70,0.03,9.73,-1.63,-3.55,3.14,-1.16,-0.25
21077,0.73,-0.09,-0.67,0.11,6.88,2.60,-6.82,0.58,-0.40,0.34,0.71,0.10,-0.70,0.03,9.73,-1.63,-3.55,1.10,-1.76,0.40
21097,0.73,-0.09,-0.67,0.11,6.88,2.60,-6.82,-0.82,-1.29,0.33,0.69,0.10,-0.72,0.04,9.73,-1.63,-3.55,1.10,-1.76,0.40
21117,0.71,-0.09,-0.69,0.12,6.88,2.60,-6.82,-0.82,-1.29,0.33,0.69,0.10,-0.72,0.04,11.19,-1.63,-3.32,1.10,-1.76,0.40
21137,0.71,-0.09,-0.69,0.12,8.07,-3.72,-2.27,-0.82,-1.29,0.33,0.67,0.10,-0.74,0.04,11.19,-1.63,-3.32,1.10,-1.76,0.40
21157,0.68,-0.08,-0.72,0.11,8.07,-3.72,-2.27,-0.82,-1.29,0.33,0.67,0.10,-0.74,0.04,9.47,1.25,-3.05,1.10,-1.76,0.40
21177,0.68,-0.08,-0.72,0.11,8.07,-3.72,-2.27,-0.29,-1.87,-0.31,0.66,0.09,-0.75,0.04,9.47,1.25,-3.05,1.10,-1.76,0.40
21197,0.66,-0.08,-0.74,0.11,8.07,-3.72,-2.27,-0.29,-1.87,-0.31,0.66,0.09,-0.75,0.04,9.89,0.02,-1.40,1.10,-1.76,0.40
21217,0.66,-0.08,-0.74,0.11,8.84,-2.69,-1.46,-0.29,-1.87,-0.31,0.64,0.09,-0.76,0.04,9.89,0.02,-1.40,1.10,-1.76,0.40
21237,0.63,-0.09,-0.77,0.10,8.84,-2.69,-1.46,-0.29,-1.87,-0.31,0.64,0.09,-0.76,0.04,9.39,0.17,-1.40,1.10,-1.76,0.40
21257,0.63,-0.09,-0.77,0.10,8.84,-2.69,-1.46,-0.61,-1.85,-0.19,0.63,0.08,-0.77,0.03,9.39,0.17,-1.40,1.10,-1.76,0.40
21277,0.60,-0.09,-0.79,0.09,8.84,-2.69,-1.46,-0.61,-1.85,-0.19,0.63,0.08,-0.77,0.03,9.47,1.02,-2.09,1.10,-1.76,0.40
21297,0.60,-0.09,-0.79,0.09,8.68,-2.07,-2.23,-0.61,-1.85,-0.19,0.62,0.07,-0.78,0.02,9.47,1.02,-2.09,1.10,-1.76,0.40
21317,0.56,-0.10,-0.82,0.07,8.68,-2.07,-2.23,-0.61,-1.85,-0.19,0.62,0.07,-0.78,0.02,9.35,-0.06,-1.33,1.10,-1.76,0.40
21337,0.56,-0.10,-0.82,0.07,8.10,-3.34,-1.84,-0.61,-1.85,-0.19,0.61,0.07,-0.79,0.01,9.35,-0.06,-1.33,1.10,-1.76,0.40
21357,0.53,-0.11,-0.84,0.07,8.10,-3.34,-1.84,-0.61,-1.85,-0.19,0.61,0.07,-0.79,0.01,9.09,0.63,-0.21,1.10,-1.76,0.40
21377,0.53,-0.11,-0.84,0.07,10.41,-2.99,0.26,-0.61,-1.85,-0.19,0.59,0.07,-0.80,0.01,9.09,0.63,-0.21,1.10,-1.76,0.40
21397,0.50,-0.12,-0.85,0.05,10.41,-2.99,0.26,-0.61,-1.85,-0.19,0.59,0.07,-0.80,0.01,8.67,0.48,0.51,1.10,-1.76,0.40
21417,0.50,-0.12,-0.85,0.05,9.79,-2.57,0.61,-0.61,-1.85,-0.19,0.56,0.06,-0.82,0.01,8.67,0.48,0.51,1.10,-1.76,0.40
21437,0.49,-0.13,-0.86,0.03,9.79,-2.57,0.61,-0.61,-1.85,-0.19,0.56,0.06,-0.82,0.01,10.00,-0.02,-0.14,1.10,-1.76,0.40
21457,0.49,-0.13,-0.86,0.03,11.94,-4.03,-0.31,-0.61,-1.85,-0.19,0.52,0.06,-0.85,0.01,10.00,-0.02,-0.14,1.10,-1.76,0.40
21477,0.51,-0.15,-0.85,-0.00,11.94,-4.03,-0.31,-0.61,-1.85,-0.19,0.52,0.06,-0.85,0.01,12.15,2.86,-1.82,1.10,-1.76,0.40
21497,0.51,-0.15,-0.85,-0.00,14.05,-1.35,0.57,-0.61,-1.85,-0.19,0.47,0.05,-0.88,0.01,12.15,2.86,-1.82,1.10,-1.76,0.40
21517,0.53,-0.15,-0.83,-0.02,14.05,-1.35,0.57,-0.61,-1.85,-0.19,0.47,0.05,-0.88,0.01,12.15,2.86,-1.82,-0.34,-2.94,0.38
21537,0.53,-0.15,-0.83,-0.02,14.16,-5.52,4.63,-0.61,-1.85,-0.19,0.41,0.04,-0.91,0.00,12.15,2.86,-1.82,-0.34,-2.94,0.38
21557,0.57,-0.15,-0.81,-0.04,14.16,-5.52,4.63,-0.61,-1.85,-0.19,0.41,0.04,-0.91,0.00,12.15,2.86,-1.82,-0.46,-3.56,0.55
21577,0.57,-0.15,-0.81,-0.04,18.00,-3.95,4.75,-0.61,-1.85,-0.19,0.35,0.02,-0.94,-0.04,12.15,2.86,-1.82,-0.46,-3.56,0.55
21597,0.61,-0.14,-0.78,-0.04,18.00,-3.95,4.75,-0.61,-1.85,-0.19,0.35,0.02,-0.94,-0.04,12.15,2.86,-1.82,-2.48,-3.64,0.29
21617,0.61,-0.14,-0.78,-0.04,13.16,-3.95,-5.64,-0.61,-1.85,-0.19,0.29,0.01,-0.95,-0.05,12.15,2.86,-1.82,-2.48,-3.64,0.29
21637,0.66,-0.13,-0.74,-0.02,13.16,-3.95,-5.64,-0.61,-1.85,-0.19,0.29,0.01,-0.95,-0.05,12.15,2.86,-1.82,-0.30,-2.70,-0.26
21657,0.66,-0.13,-0.74,-0.02,17.42,-4.68,-6.17,-0.61,-1.85,-0.19,0.28,0.02,-0.96,-0.03,12.15,2.86,-1.82,-0.30,-2.70,-0.26
21677,0.70,-0.13,-0.71,-0.01,17.42,-4.68,-6.17,-0.61,-1.85,-0.19,0.28,0.02,-0.96,-0.03,4.99,0.75,-5.77,-0.30,-2.70,-0.26
21697,0.70,-0.13,-0.71,-0.01,13.36,0.18,-6.29,-0.61,-1.85,-0.19,0.31,0.01,-0.95,-0.02,4.99,0.75,-5.77,-0.30,-2.70,-0.26
21717,0.73,-0.13,-0.67,-0.00,13.36,0.18,-6.29,-0.61,-1.85,-0.19,0.31,0.01,-0.95,-0.02,3.91,-2.16,-4.05,-0.30,-2.70,-0.26
21737,0.73,-0.13,-0.67,-0.00,7.69,-1.58,-5.98,-0.61,-1.85,-0.19,0.37,0.02,-0.93,0.00,3.91,-2.16,-4.05,-0.30,-2.70,-0.26
21757,0.75,-0.12,-0.65,0.02,7.69,-1.58,-5.98,-0.61,-1.85,-0.19,0.37,0.02,-0.93,0.00,3.64,0.17,-4.01,-0.30,-2.70,-0.26
21777,0.75,-0.12,-0.65,0.02,6.38,-2.77,-5.45,-0.61,-1.85,-0.19,0.45,0.02,-0.89,0.01,3.64,0.17,-4.01,-0.30,-2.70,-0.26
21797,0.76,-0.11,-0.63,0.05,6.38,-2.77,-5.45,-0.61,-1.85,-0.19,0.45,0.02,-0.89,0.01,3.64,0.17,-4.01,0.43,4.62,-0.08
21817,0.76,-0.11,-0.63,0.05,3.78,-1.46,-6.05,-0.61,-1.85,-0.19,0.54,0.03,-0.84,0.00,3.64,0.17,-4.01,0.43,4.62,-0.08
21837,0.76,-0.10,-0.64,0.07,3.78,-1.46,-6.05,-0.61,-1.85,-0.19,0.54,0.03,-0.84,0.00,3.64,0.17,-4.01,-0.34,5.42,-0.77
21857,0.76,-0.10,-0.64,0.07,2.02,0.68,-5.68,-0.61,-1.85,-0.19,0.63,0.04,-0.77,-0.01,3.64,0.17,-4.01,-0.34,5.42,-0.77
21877,0.76,-0.08,-0.64,0.09,2.02,0.68,-5.68,-0.61,-1.85,-0.19,0.63,0.04,-0.77,-0.01,3.64,0.17,-4.01,-0.30,5.89,-1.03
21897,0.76,-0.08,-0.64,0.09,6.19,0.34,-1.50,-0.61,-1.85,-0.19,0.72,0.04,-0.69,-0.03,3.64,0.17,-4.01,-0.30,5.89,-1.03
21917,0.76,-0.07,-0.63,0.11,6.19,0.34,-1.50,-0.61,-1.85,-0.19,0.72,0.04,-0.69,-0.03,3.64,0.17,-4.01,-1.24,5.77,-0.75
21937,0.76,-0.07,-0.63,0.11,11.90,-1.04,4.75,-0.61,-1.85,-0.19,0.78,0.03,-0.63,-0.05,3.64,0.17,-4.01,-1.24,5.77,-0.75
21957,0.77,-0.08,-0.63,0.12,11.90,-1.04,4.75,-0.61,-1.85,-0.19,0.78,0.03,-0.63,-0.05,3.64,0.17,-4.01,-1.04,4.14,-0.38
21977,0.77,-0.08,-0.63,0.12,11.86,0.45,9.27,-0.61,-1.85,-0.19,0.79,0.02,-0.60,-0.06,3.64,0.17,-4.01,-1.04,4.14,-0.38
21997,0.76,-0.08,-0.63,0.12,11.86,0.45,9.27,-0.61,-1.85,-0.19,0.79,0.02,-0.60,-0.06,3.64,0.17,-4.01,-0.69,1.13,0.30
22017,0.76,-0.08,-0.63,0.12,12.02,-2.57,5.13,-0.61,-1.85,-0.19,0.78,0.03,-0.63,-0.04,3.64,0.17,-4.01,-0.69,1.13,0.30
22037,0.77,-0.08,-0.63,0.12,12.02,-2.57,5.13,-0.61,-1.85,-0.19,0.78,0.03,-0.63,-0.04,3.64,0.17,-4.01,1.55,-2.00,0.34
