Time,QuatW,QuatX,QuatY,QuatZ,AccX,AccY,AccZ,GyroX,GyroY,GyroZ,QuatW2,QuatX2,QuatY2,QuatZ2,AccX2,AccY2,AccZ2,GyroX2,GyroY2,GyroZ2



1646,0.00,0.00,0.00,0.00,9.53,-0.77,-1.77,0.00,0.00,0.00,0.00,0.00,0.00,0.00,9.28,0.59,-2.09,0.00,0.00,0.00
1666,0.00,0.00,0.00,0.00,9.45,-0.81,-1.88,0.00,0.00,0.00,0.00,0.00,0.00,0.00,9.39,0.55,-2.05,0.00,0.00,0.00

1706,0.00,0.00,0.00,0.00,9.48,-0.85,-1.96,0.00,0.00,0.00,0.00,0.00,0.00,0.00,9.39,0.59,-2.25,0.00,0.00,0.00
1726,0.63,-0.03,-0.77,0.03,9.48,-0.85,-1.96,0.00,0.00,0.00,0.62,0.02,-0.78,-0.02,9.39,0.59,-2.25,0.00,0.00,0.00

1766,0.63,-0.03,-0.77,0.03,9.37,-0.89,-2.27,0.00,0.00,0.00,0.62,0.02,-0.78,-0.02,9.32,0.55,-2.36,0.00,0.00,0.00
1786,0.63,-0.03,-0.77,0.03,9.37,-0.89,-2.27,0.00,0.00,0.00,0.62,0.02,-0.78,-0.02,9.32,0.55,-2.36,0.00,0.00,0.00
1806,0.63,-0.03,-0.77,0.03,9.45,-0.96,-2.11,0.00,0.00,0.00,0.62,0.02,-0.78,-0.02,9.39,0.63,-2.32,0.00,0.00,0.00
1826,0.63,-0.03,-0.77,0.04,9.45,-0.96,-2.11,0.00,0.00,0.00,0.62,0.02,-0.78,-0.02,9.39,0.63,-2.32,0.00,0.00,0.00
1846,0.63,-0.03,-0.77,0.04,9.37,-0.96,-2.07,0.00,0.00,0.00,0.62,0.02,-0.78,-0.02,9.36,0.52,-2.32,0.00,0.00,0.00
1866,0.63,-0.03,-0.77,0.04,9.37,-0.96,-2.07,0.00,0.00,0.00,0.62,0.02,-0.78,-0.02,9.36,0.52,-2.32,0.00,0.00,0.00
1886,0.63,-0.03,-0.77,0.04,9.37,-0.96,-2.07,0.03,0.00,-0.00,0.62,0.02,-0.78,-0.02,9.39,0.52,-2.25,0.00,0.00,0.00
1906,0.63,-0.03,-0.77,0.04,9.37,-0.96,-2.07,0.03,0.00,-0.00,0.62,0.02,-0.78,-0.02,9.39,0.52,-2.25,0.00,0.00,0.00
1926,0.63,-0.03,-0.77,0.04,9.41,-0.85,-2.15,0.03,0.00,-0.00,0.62,0.02,-0.78,-0.02,9.36,0.52,-2.32,0.00,0.00,0.00
1946,0.63,-0.03,-0.77,0.04,9.41,-0.85,-2.15,0.03,0.00,-0.00,0.62,0.02,-0.78,-0.02,9.36,0.52,-2.32,0.00,0.00,0.00
1966,0.63,-0.03,-0.77,0.04,9.45,-0.85,-2.11,0.03,0.00,-0.00,0.62,0.02,-0.78,-0.02,9.39,0.63,-2.36,0.00,0.00,0.00
1986,0.63,-0.03,-0.77,0.04,9.45,-0.85,-2.11,0.03,0.00,-0.00,0.62,0.02,-0.78,-0.02,9.39,0.63,-2.36,0.00,0.00,0.00
2006,0.63,-0.03,-0.77,0.04,9.48,-0.96,-1.96,0.03,0.00,-0.00,0.62,0.02,-0.78,-0.02,9.39,0.59,-2.21,0.00,0.00,0.00
2026,0.63,-0.03,-0.77,0.04,9.48,-0.96,-1.96,0.03,0.00,-0.00,0.62,0.02,-0.78,-0.02,9.39,0.59,-2.21,0.00,0.00,0.00
2046,0.63,-0.03,-0.77,0.04,9.45,-0.89,-1.96,0.03,0.00,-0.00,0.62,0.02,-0.78,-0.02,9.35,0.52,-2.25,0.00,0.00,0.00
2066,0.63,-0.03,-0.77,0.04,9.45,-0.89,-1.96,0.03,0.00,-0.00,0.62,0.02,-0.78,-0.02,9.35,0.52,-2.25,0.00,0.00,0.00
2086,0.63,-0.03,-0.77,0.04,9.45,-0.81,-2.00,0.03,0.00,-0.00,0.62,0.02,-0.78,-0.02,9.39,0.55,-2.36,0.00,0.00,0.00
2106,0.63,-0.03,-0.77,0.04,9.45,-0.81,-2.00,0.03,0.00,-0.00,0.62,0.02,-0.78,-0.02,9.39,0.55,-2.36,0.00,0.00,0.00
2126,0.63,-0.03,-0.77,0.04,9.48,-0.77,-1.73,0.03,0.00,-0.00,0.62,0.02,-0.78,-0.02,9.20,0.59,-2.25,0.00,0.00,0.00
2146,0.63,-0.03,-0.77,0.04,9.48,-0.77,-1.73,0.03,0.00,-0.00,0.62,0.02,-0.78,-0.02,9.20,0.59,-2.25,0.00,0.00,0.00
2166,0.63,-0.03,-0.77,0.04,9.75,-1.00,-1.73,0.03,0.00,-0.00,0.62,0.02,-0.78,-0.02,9.66,0.32,-2.40,0.00,0.00,0.00
2186,0.63,-0.02,-0.77,0.04,9.75,-1.00,-1.73,0.03,0.00,-0.00,0.62,0.02,-0.78,-0.02,9.66,0.32,-2.40,0.00,0.00,0.00
2206,0.63,-0.02,-0.77,0.04,9.29,-1.00,-2.19,0.03,0.00,-0.00,0.62,0.02,-0.78,-0.02,9.20,0.59,-2.44,0.00,0.00,0.00
2226,0.63,-0.02,-0.77,0.04,9.29,-1.00,-2.19,0.03,0.00,-0.00,0.62,0.02,-0.79,-0.02,9.20,0.59,-2.44,0.00,0.00,0.00
2246,0.63,-0.02,-0.77,0.04,9.18,-0.66,-2.23,0.03,0.00,-0.00,0.62,0.02,-0.79,-0.02,9.62,0.29,-2.40,0.00,0.00,0.00
2266,0.63,-0.02,-0.77,0.04,9.18,-0.66,-2.23,0.03,0.00,-0.00,0.62,0.02,-0.78,-0.01,9.62,0.29,-2.40,0.00,0.00,0.00
2286,0.63,-0.02,-0.77,0.04,9.11,-1.16,-3.45,0.03,0.00,-0.00,0.62,0.02,-0.78,-0.01,9.51,0.63,-3.39,0.00,0.00,0.00
2306,0.63,-0.02,-0.78,0.05,9.11,-1.16,-3.45,0.03,0.00,-0.00,0.62,0.02,-0.78,-0.01,9.51,0.63,-3.39,0.00,0.00,0.00
2326,0.63,-0.02,-0.78,0.05,9.11,-1.16,-3.45,0.11,-0.30,0.02,0.62,0.02,-0.78,-0.01,9.28,0.25,-2.82,0.00,0.00,0.00
2346,0.62,-0.02,-0.78,0.05,9.11,-1.16,-3.45,0.11,-0.30,0.02,0.62,0.02,-0.78,-0.01,9.28,0.25,-2.82,0.00,0.00,0.00
2366,0.62,-0.02,-0.78,0.05,9.48,-1.00,-2.11,0.11,-0.30,0.02,0.62,0.02,-0.78,-0.01,9.35,0.40,-2.13,0.00,0.00,0.00
2386,0.62,-0.02,-0.78,0.05,9.48,-1.00,-2.11,0.11,-0.30,0.02,0.63,0.02,-0.78,-0.01,9.35,0.40,-2.13,0.00,0.00,0.00
2406,0.62,-0.02,-0.78,0.05,9.68,-1.00,-1.54,0.11,-0.30,0.02,0.63,0.02,-0.78,-0.01,9.28,0.06,-1.86,0.00,0.00,0.00
2426,0.62,-0.02,-0.78,0.05,9.68,-1.00,-1.54,0.11,-0.30,0.02,0.63,0.02,-0.78,-0.01,9.28,0.06,-1.86,0.00,0.00,0.00
2446,0.62,-0.02,-0.78,0.05,9.71,-1.04,-1.12,0.11,-0.30,0.02,0.63,0.02,-0.78,-0.01,9.55,-0.06,-1.33,0.00,0.00,0.00
2466,0.62,-0.02,-0.78,0.05,9.71,-1.04,-1.12,0.11,-0.30,0.02,0.63,0.02,-0.78,-0.01,9.55,-0.06,-1.33,0.00,0.00,0.00
2486,0.62,-0.02,-0.78,0.05,9.41,-1.20,-2.04,0.11,-0.30,0.02,0.63,0.02,-0.78,-0.01,9.39,0.32,-1.94,0.00,0.00,0.00
2506,0.62,-0.03,-0.78,0.05,9.41,-1.20,-2.04,0.11,-0.30,0.02,0.62,0.02,-0.78,-0.01,9.39,0.32,-1.94,0.00,0.00,0.00
2526,0.62,-0.03,-0.78,0.05,9.22,-1.04,-2.34,0.11,-0.30,0.02,0.62,0.02,-0.78,-0.01,9.51,0.21,-2.21,0.00,0.00,0.00
2546,0.62,-0.03,-0.78,0.05,9.22,-1.04,-2.34,0.11,-0.30,0.02,0.62,0.02,-0.78,-0.01,9.51,0.21,-2.21,0.00,0.00,0.00
2566,0.62,-0.03,-0.78,0.05,9.22,-1.16,-2.73,0.11,-0.30,0.02,0.62,0.02,-0.78,-0.01,9.47,0.17,-2.44,0.00,0.00,0.00
2586,0.62,-0.03,-0.78,0.05,9.22,-1.16,-2.73,0.11,-0.30,0.02,0.62,0.02,-0.78,-0.01,9.47,0.17,-2.44,0.00,0.00,0.00
2606,0.62,-0.03,-0.78,0.05,9.37,-1.16,-2.46,0.11,-0.30,0.02,0.62,0.02,-0.78,-0.01,9.39,0.32,-2.29,0.00,0.00,0.00
2626,0.62,-0.02,-0.78,0.05,9.37,-1.16,-2.46,0.11,-0.30,0.02,0.62,0.02,-0.78,-0.01,9.39,0.32,-2.29,0.00,0.00,0.00
2646,0.62,-0.02,-0.78,0.05,9.45,-0.96,-2.30,0.11,-0.30,0.02,0.62,0.02,-0.78,-0.01,9.35,0.21,-2.36,0.00,0.00,0.00
2666,0.62,-0.03,-0.78,0.05,9.45,-0.96,-2.30,0.11,-0.30,0.02,0.62,0.02,-0.79,-0.01,9.35,0.21,-2.36,0.00,0.00,0.00
2686,0.62,-0.03,-0.78,0.05,9.37,-1.00,-2.50,0.11,-0.30,0.02,0.62,0.02,-0.79,-0.01,9.35,0.21,-2.48,0.00,0.00,0.00
2706,0.62,-0.03,-0.78,0.05,9.37,-1.00,-2.50,0.11,-0.30,0.02,0.62,0.02,-0.79,-0.01,9.35,0.21,-2.48,0.00,0.00,0.00
2726,0.62,-0.03,-0.78,0.05,9.22,-1.12,-2.80,0.11,-0.30,0.02,0.62,0.02,-0.79,-0.01,9.39,0.17,-2.59,0.00,0.00,0.00
2746,0.62,-0.03,-0.78,0.05,9.22,-1.12,-2.80,0.11,-0.30,0.02,0.62,0.02,-0.79,-0.01,9.39,0.17,-2.59,0.00,0.00,0.00
2766,0.62,-0.03,-0.78,0.05,9.41,-1.12,-2.57,0.11,-0.30,0.02,0.62,0.02,-0.79,-0.01,9.36,0.25,-2.55,0.00,0.00,0.00
2786,0.62,-0.03,-0.78,0.05,9.41,-1.12,-2.57,0.11,-0.30,0.02,0.61,0.02,-0.79,-0.00,9.36,0.25,-2.55,0.00,0.00,0.00
2806,0.62,-0.03,-0.78,0.05,9.29,-0.96,-2.42,0.11,-0.30,0.02,0.61,0.02,-0.79,-0.00,9.28,0.13,-2.48,0.00,0.00,0.00
2826,0.62,-0.03,-0.78,0.05,9.29,-0.96,-2.42,0.11,-0.30,0.02,0.61,0.02,-0.79,-0.00,9.28,0.13,-2.48,0.00,0.00,0.00
2846,0.62,-0.03,-0.78,0.05,9.29,-0.96,-2.42,-0.08,0.08,-0.07,0.61,0.02,-0.79,-0.00,9.32,0.10,-2.44,0.00,0.00,0.00
2866,0.62,-0.03,-0.78,0.05,9.29,-0.96,-2.42,-0.08,0.08,-0.07,0.61,0.02,-0.79,-0.00,9.32,0.10,-2.44,0.00,0.00,0.00
2886,0.62,-0.03,-0.78,0.05,9.22,-1.00,-2.73,-0.08,0.08,-0.07,0.61,0.02,-0.79,-0.00,9.27,0.17,-2.67,0.00,0.00,0.00
2906,0.62,-0.03,-0.78,0.05,9.22,-1.00,-2.73,-0.08,0.08,-0.07,0.61,0.02,-0.79,-0.00,9.27,0.17,-2.67,0.00,0.00,0.00
2926,0.62,-0.03,-0.78,0.05,9.26,-1.20,-2.80,-0.08,0.08,-0.07,0.61,0.02,-0.79,-0.00,9.43,0.10,-2.75,0.00,0.00,0.00
2946,0.62,-0.03,-0.78,0.05,9.26,-1.20,-2.80,-0.08,0.08,-0.07,0.61,0.02,-0.79,-0.00,9.43,0.10,-2.75,0.00,0.00,0.00
2966,0.62,-0.03,-0.78,0.05,9.26,-1.16,-2.61,-0.08,0.08,-0.07,0.61,0.02,-0.79,-0.00,9.31,0.13,-2.63,0.00,0.00,0.00
2986,0.62,-0.03,-0.78,0.05,9.26,-1.16,-2.61,-0.08,0.08,-0.07,0.61,0.02,-0.79,-0.00,9.31,0.13,-2.63,0.00,0.00,0.00
3006,0.62,-0.03,-0.78,0.05,9.33,-1.00,-2.15,-0.08,0.08,-0.07,0.61,0.02,-0.79,-0.00,9.31,0.17,-2.52,0.00,0.00,0.00
3026,0.62,-0.03,-0.78,0.05,9.33,-1.00,-2.15,-0.08,0.08,-0.07,0.61,0.02,-0.79,-0.00,9.31,0.17,-2.52,0.00,0.00,0.00
3046,0.62,-0.03,-0.78,0.05,9.41,-1.04,-1.96,-0.08,0.08,-0.07,0.61,0.02,-0.79,-0.00,9.36,0.17,-2.29,0.00,0.00,0.00
3066,0.62,-0.03,-0.78,0.05,9.41,-1.04,-1.96,-0.08,0.08,-0.07,0.62,0.02,-0.79,-0.00,9.36,0.17,-2.29,0.00,0.00,0.00
3086,0.62,-0.03,-0.78,0.05,9.41,-1.04,-2.11,-0.08,0.08,-0.07,0.62,0.02,-0.79,-0.00,9.51,0.17,-2.48,0.00,0.00,0.00
3106,0.63,-0.03,-0.78,0.05,9.41,-1.04,-2.11,-0.08,0.08,-0.07,0.62,0.02,-0.79,-0.00,9.51,0.17,-2.48,0.00,0.00,0.00
3126,0.63,-0.03,-0.78,0.05,9.22,-1.50,-2.42,-0.08,0.08,-0.07,0.62,0.02,-0.79,-0.00,9.36,0.25,-2.40,0.00,0.00,0.00
3146,0.63,-0.02,-0.78,0.05,9.22,-1.50,-2.42,-0.08,0.08,-0.07,0.62,0.02,-0.79,-0.00,9.36,0.25,-2.40,0.00,0.00,0.00
3166,0.63,-0.02,-0.78,0.05,9.45,-0.96,-2.11,-0.08,0.08,-0.07,0.62,0.02,-0.79,-0.00,9.39,0.21,-2.40,0.00,0.00,0.00
3186,0.62,-0.02,-0.78,0.05,9.45,-0.96,-2.11,-0.08,0.08,-0.07,0.62,0.02,-0.79,-0.00,9.39,0.21,-2.40,0.00,0.00,0.00
3206,0.62,-0.02,-0.78,0.05,9.33,-1.00,-2.19,-0.08,0.08,-0.07,0.62,0.02,-0.79,-0.00,9.32,0.21,-2.40,0.00,0.00,0.00
3226,0.62,-0.02,-0.78,0.05,9.33,-1.00,-2.19,-0.08,0.08,-0.07,0.62,0.02,-0.79,-0.00,9.32,0.21,-2.40,0.00,0.00,0.00
3246,0.62,-0.02,-0.78,0.05,9.48,-1.00,-1.88,-0.08,0.08,-0.07,0.62,0.02,-0.79,-0.00,9.31,0.21,-2.29,0.00,0.00,0.00
3266,0.62,-0.02,-0.78,0.06,9.48,-1.00,-1.88,-0.08,0.08,-0.07,0.62,0.02,-0.79,-0.00,9.31,0.21,-2.29,0.00,0.00,0.00
3286,0.62,-0.02,-0.78,0.06,9.48,-1.00,-1.88,0.04,0.01,0.02,0.62,0.02,-0.79,-0.00,9.31,0.29,-2.48,0.00,0.00,0.00
3306,0.62,-0.02,-0.78,0.06,9.48,-1.00,-1.88,0.04,0.01,0.02,0.62,0.02,-0.79,-0.00,9.31,0.29,-2.48,0.00,0.00,0.00
3326,0.62,-0.02,-0.78,0.06,9.29,-1.00,-2.15,0.04,0.01,0.02,0.62,0.02,-0.79,-0.00,9.51,0.06,-2.32,0.00,0.00,0.00
3346,0.62,-0.02,-0.78,0.06,9.29,-1.00,-2.15,0.04,0.01,0.02,0.62,0.02,-0.79,-0.00,9.51,0.06,-2.32,0.00,0.00,0.00
3366,0.62,-0.02,-0.78,0.06,9.41,-0.96,-2.15,0.04,0.01,0.02,0.62,0.02,-0.79,-0.00,9.36,0.44,-2.36,0.00,0.00,0.00
3386,0.62,-0.02,-0.78,0.06,9.41,-0.96,-2.15,0.04,0.01,0.02,0.62,0.02,-0.79,-0.00,9.36,0.44,-2.36,0.00,0.00,0.00
3406,0.62,-0.02,-0.78,0.06,9.18,-1.00,-2.38,0.04,0.01,0.02,0.62,0.02,-0.79,-0.00,9.27,0.21,-2.52,0.00,0.00,0.00
3426,0.62,-0.02,-0.78,0.06,9.18,-1.00,-2.38,0.04,0.01,0.02,0.62,0.02,-0.79,-0.00,9.27,0.21,-2.52,0.00,0.00,0.00
3446,0.62,-0.02,-0.78,0.06,9.37,-1.04,-2.34,0.04,0.01,0.02,0.62,0.02,-0.79,-0.00,9.39,0.17,-2.40,0.00,0.00,0.00
3466,0.62,-0.02,-0.78,0.06,9.37,-1.04,-2.34,0.04,0.01,0.02,0.62,0.02,-0.79,0.00,9.39,0.17,-2.40,0.00,0.00,0.00
3486,0.62,-0.02,-0.78,0.06,9.18,-0.93,-2.50,0.04,0.01,0.02,0.62,0.02,-0.79,0.00,9.31,0.29,-2.67,0.00,0.00,0.00
3506,0.62,-0.02,-0.78,0.06,9.18,-0.93,-2.50,0.04,0.01,0.02,0.62,0.02,-0.79,0.00,9.31,0.29,-2.67,0.00,0.00,0.00
3526,0.62,-0.02,-0.78,0.06,9.14,-0.70,-2.57,0.04,0.01,0.02,0.62,0.02,-0.79,0.00,9.16,0.44,-3.05,0.00,0.00,0.00
3546,0.62,-0.02,-0.78,0.06,9.14,-0.70,-2.57,0.04,0.01,0.02,0.62,0.02,-0.79,0.00,9.16,0.44,-3.05,0.00,0.00,0.00
3566,0.62,-0.02,-0.78,0.06,9.33,-1.04,-2.07,0.04,0.01,0.02,0.62,0.02,-0.79,0.00,9.32,0.21,-2.32,0.00,0.00,0.00
3586,0.61,-0.02,-0.79,0.06,9.33,-1.04,-2.07,0.04,0.01,0.02,0.62,0.02,-0.79,0.00,9.32,0.21,-2.32,0.00,0.00,0.00
3606,0.61,-0.02,-0.79,0.06,9.57,-1.20,-1.96,0.04,0.01,0.02,0.62,0.02,-0.79,0.00,9.39,0.21,-2.17,0.00,0.00,0.00
3626,0.61,-0.02,-0.79,0.07,9.57,-1.20,-1.96,0.04,0.01,0.02,0.61,0.02,-0.79,0.01,9.39,0.21,-2.17,0.00,0.00,0.00
3646,0.61,-0.02,-0.79,0.07,9.33,-1.04,-2.15,0.04,0.01,0.02,0.61,0.02,-0.79,0.01,9.27,0.10,-2.29,0.00,0.00,0.00
3666,0.61,-0.02,-0.79,0.07,9.33,-1.04,-2.15,0.04,0.01,0.02,0.61,0.02,-0.79,0.01,9.27,0.10,-2.29,0.00,0.00,0.00
3686,0.61,-0.02,-0.79,0.07,9.14,-1.12,-2.57,0.04,0.01,0.02,0.61,0.02,-0.79,0.01,9.27,0.10,-2.59,0.00,0.00,0.00
3706,0.60,-0.02,-0.80,0.07,9.14,-1.12,-2.57,0.04,0.01,0.02,0.61,0.02,-0.79,0.01,9.27,0.10,-2.59,0.00,0.00,0.00
3726,0.60,-0.02,-0.80,0.07,9.14,-1.12,-2.57,0.27,-0.21,0.11,0.61,0.02,-0.79,0.01,9.27,0.10,-2.59,0.25,-0.04,0.10
3746,0.60,-0.01,-0.80,0.08,9.14,-1.12,-2.57,0.27,-0.21,0.11,0.61,0.02,-0.79,0.02,9.27,0.10,-2.59,0.25,-0.04,0.10
3766,0.60,-0.01,-0.80,0.08,9.33,-1.84,-1.73,0.27,-0.21,0.11,0.61,0.02,-0.79,0.02,9.39,-0.44,-1.98,0.25,-0.04,0.10
3786,0.59,-0.01,-0.80,0.09,9.33,-1.84,-1.73,0.27,-0.21,0.11,0.61,0.02,-0.79,0.03,9.39,-0.44,-1.98,0.25,-0.04,0.10
3806,0.59,-0.01,-0.80,0.09,9.33,-1.84,-1.73,0.20,-0.23,0.03,0.61,0.02,-0.79,0.03,9.36,-0.13,-2.05,0.25,-0.04,0.10
3826,0.59,-0.01,-0.80,0.09,9.33,-1.84,-1.73,0.20,-0.23,0.03,0.60,0.03,-0.80,0.03,9.36,-0.13,-2.05,0.25,-0.04,0.10
3846,0.59,-0.01,-0.80,0.09,9.49,-0.89,-1.92,0.20,-0.23,0.03,0.60,0.03,-0.80,0.03,9.43,-0.02,-2.36,0.25,-0.04,0.10
3866,0.59,-0.01,-0.81,0.09,9.49,-0.89,-1.92,0.20,-0.23,0.03,0.60,0.02,-0.80,0.03,9.43,-0.02,-2.36,0.25,-0.04,0.10
3886,0.59,-0.01,-0.81,0.09,8.64,-1.96,-3.45,0.20,-0.23,0.03,0.60,0.02,-0.80,0.03,9.43,-0.02,-2.36,-0.04,-0.33,0.07
3906,0.58,-0.01,-0.81,0.09,8.64,-1.96,-3.45,0.20,-0.23,0.03,0.59,0.02,-0.80,0.03,9.43,-0.02,-2.36,-0.04,-0.33,0.07
3926,0.58,-0.01,-0.81,0.09,8.72,-1.96,-3.37,0.20,-0.23,0.03,0.59,0.02,-0.80,0.03,9.43,-0.02,-2.36,-0.02,-0.27,0.04
3946,0.57,-0.01,-0.82,0.09,8.72,-1.96,-3.37,0.20,-0.23,0.03,0.59,0.02,-0.81,0.03,9.43,-0.02,-2.36,-0.02,-0.27,0.04
3966,0.57,-0.01,-0.82,0.09,8.84,-1.65,-2.92,0.20,-0.23,0.03,0.59,0.02,-0.81,0.03,9.43,-0.02,-2.36,-0.04,-0.26,0.06
3986,0.56,-0.01,-0.82,0.09,8.84,-1.65,-2.92,0.20,-0.23,0.03,0.58,0.02,-0.81,0.03,9.43,-0.02,-2.36,-0.04,-0.26,0.06
4006,0.56,-0.01,-0.82,0.09,9.26,-1.46,-2.00,0.20,-0.23,0.03,0.58,0.02,-0.81,0.03,9.43,-0.02,-2.36,0.09,-0.34,0.05
4026,0.55,-0.01,-0.83,0.09,9.26,-1.46,-2.00,0.20,-0.23,0.03,0.58,0.02,-0.82,0.03,9.43,-0.02,-2.36,0.09,-0.34,0.05
4046,0.55,-0.01,-0.83,0.09,9.06,-0.50,-1.92,0.20,-0.23,0.03,0.58,0.02,-0.82,0.03,9.43,-0.02,-2.36,-0.06,-0.50,0.09
4066,0.54,-0.01,-0.84,0.08,9.06,-0.50,-1.92,0.20,-0.23,0.03,0.57,0.02,-0.82,0.03,9.43,-0.02,-2.36,-0.06,-0.50,0.09
4086,0.54,-0.01,-0.84,0.08,9.56,-1.16,-1.54,0.20,-0.23,0.03,0.57,0.02,-0.82,0.03,9.43,-0.02,-2.36,-0.11,-0.69,0.11
4106,0.53,-0.02,-0.85,0.07,9.56,-1.16,-1.54,0.20,-0.23,0.03,0.55,0.02,-0.83,0.03,9.43,-0.02,-2.36,-0.11,-0.69,0.11
4126,0.53,-0.02,-0.85,0.07,8.41,-1.54,-3.80,0.20,-0.23,0.03,0.55,0.02,-0.83,0.03,9.43,-0.02,-2.36,0.06,-0.90,0.10
4146,0.52,-0.03,-0.85,0.06,8.41,-1.54,-3.80,0.20,-0.23,0.03,0.54,0.02,-0.84,0.03,9.43,-0.02,-2.36,0.06,-0.90,0.10
4166,0.52,-0.03,-0.85,0.06,8.41,-1.54,-3.80,-0.80,-0.82,0.04,0.54,0.02,-0.84,0.03,9.43,-0.02,-2.36,-0.02,-0.92,0.12
4186,0.50,-0.04,-0.86,0.05,8.41,-1.54,-3.80,-0.80,-0.82,0.04,0.52,0.01,-0.85,0.03,9.43,-0.02,-2.36,-0.02,-0.92,0.12
4206,0.50,-0.04,-0.86,0.05,8.41,-1.54,-3.80,-0.79,-0.79,0.15,0.52,0.01,-0.85,0.03,9.43,-0.02,-2.36,-0.19,-0.96,0.22
4226,0.49,-0.05,-0.87,0.03,8.41,-1.54,-3.80,-0.79,-0.79,0.15,0.50,0.01,-0.87,0.03,9.43,-0.02,-2.36,-0.19,-0.96,0.22
4246,0.49,-0.05,-0.87,0.03,8.41,-1.54,-3.80,-0.68,-0.57,0.17,0.50,0.01,-0.87,0.03,9.43,-0.02,-2.36,-0.18,-1.09,0.17
4266,0.48,-0.05,-0.88,0.02,8.41,-1.54,-3.80,-0.68,-0.57,0.17,0.48,0.00,-0.88,0.03,9.43,-0.02,-2.36,-0.18,-1.09,0.17
4286,0.48,-0.05,-0.88,0.02,11.40,-1.16,-3.49,-0.68,-0.57,0.17,0.48,0.00,-0.88,0.03,9.43,-0.02,-2.36,-0.24,-1.22,0.08
4306,0.48,-0.06,-0.88,0.01,11.40,-1.16,-3.49,-0.68,-0.57,0.17,0.45,-0.00,-0.89,0.02,9.43,-0.02,-2.36,-0.24,-1.22,0.08
4326,0.48,-0.06,-0.88,0.01,12.63,-2.19,-0.70,-0.68,-0.57,0.17,0.45,-0.00,-0.89,0.02,9.43,-0.02,-2.36,-0.47,-1.45,0.07
4346,0.49,-0.07,-0.87,-0.01,12.63,-2.19,-0.70,-0.68,-0.57,0.17,0.42,-0.00,-0.91,0.02,9.43,-0.02,-2.36,-0.47,-1.45,0.07
4366,0.49,-0.07,-0.87,-0.01,14.50,-2.99,1.53,-0.68,-0.57,0.17,0.42,-0.00,-0.91,0.02,9.43,-0.02,-2.36,-0.31,-1.76,0.03
4386,0.51,-0.06,-0.85,-0.03,14.50,-2.99,1.53,-0.68,-0.57,0.17,0.39,-0.01,-0.92,0.00,9.43,-0.02,-2.36,-0.31,-1.76,0.03
4406,0.51,-0.06,-0.85,-0.03,15.08,0.99,5.05,-0.68,-0.57,0.17,0.39,-0.01,-0.92,0.00,9.43,-0.02,-2.36,-0.77,-2.12,-0.20
4426,0.55,-0.06,-0.83,-0.04,15.08,0.99,5.05,-0.68,-0.57,0.17,0.34,-0.03,-0.94,-0.03,9.43,-0.02,-2.36,-0.77,-2.12,-0.20
4446,0.55,-0.06,-0.83,-0.04,10.75,1.49,-0.16,-0.68,-0.57,0.17,0.34,-0.03,-0.94,-0.03,9.43,-0.02,-2.36,-2.18,-2.63,0.41
4466,0.58,-0.07,-0.81,-0.07,10.75,1.49,-0.16,-0.68,-0.57,0.17,0.30,-0.05,-0.95,-0.06,9.43,-0.02,-2.36,-2.18,-2.63,0.41
4486,0.58,-0.07,-0.81,-0.07,14.84,-0.66,-7.05,-0.68,-0.57,0.17,0.30,-0.05,-0.95,-0.06,9.43,-0.02,-2.36,-1.28,-2.03,0.40
4506,0.61,-0.08,-0.78,-0.08,14.84,-0.66,-7.05,-0.68,-0.57,0.17,0.28,-0.06,-0.96,-0.06,9.43,-0.02,-2.36,-1.28,-2.03,0.40
4526,0.61,-0.08,-0.78,-0.08,12.63,-1.23,-6.67,-0.68,-0.57,0.17,0.28,-0.06,-0.96,-0.06,9.43,-0.02,-2.36,-0.11,-0.87,0.49
4546,0.65,-0.09,-0.75,-0.07,12.63,-1.23,-6.67,-0.68,-0.57,0.17,0.29,-0.06,-0.95,-0.05,9.43,-0.02,-2.36,-0.11,-0.87,0.49
4566,0.65,-0.09,-0.75,-0.07,10.90,-2.15,-4.60,-0.68,-0.57,0.17,0.29,-0.06,-0.95,-0.05,9.43,-0.02,-2.36,0.36,0.75,0.39
4586,0.69,-0.09,-0.71,-0.06,10.90,-2.15,-4.60,-0.68,-0.57,0.17,0.33,-0.06,-0.94,-0.03,9.43,-0.02,-2.36,0.36,0.75,0.39
4606,0.69,-0.09,-0.71,-0.06,8.95,-1.88,-4.34,-0.68,-0.57,0.17,0.33,-0.06,-0.94,-0.03,9.43,-0.02,-2.36,1.48,2.34,0.13
4626,0.73,-0.08,-0.68,-0.04,8.95,-1.88,-4.34,-0.68,-0.57,0.17,0.39,-0.04,-0.92,-0.00,9.43,-0.02,-2.36,1.48,2.34,0.13
4646,0.73,-0.08,-0.68,-0.04,7.91,-1.73,-4.18,-0.68,-0.57,0.17,0.39,-0.04,-0.92,-0.00,9.43,-0.02,-2.36,1.40,3.54,-0.15
4666,0.76,-0.06,-0.65,-0.01,7.91,-1.73,-4.18,-0.68,-0.57,0.17,0.47,-0.03,-0.88,-0.00,9.43,-0.02,-2.36,1.40,3.54,-0.15
4686,0.76,-0.06,-0.65,-0.01,7.91,-1.73,-4.18,1.61,1.56,0.34,0.47,-0.03,-0.88,-0.00,9.43,-0.02,-2.36,0.51,4.42,-0.57
4706,0.77,-0.04,-0.63,0.01,7.91,-1.73,-4.18,1.61,1.56,0.34,0.56,-0.01,-0.83,-0.00,9.43,-0.02,-2.36,0.51,4.42,-0.57
4726,0.77,-0.04,-0.63,0.01,3.36,0.64,-4.18,1.61,1.56,0.34,0.56,-0.01,-0.83,-0.00,9.43,-0.02,-2.36,0.63,5.04,-0.88
4746,0.78,-0.02,-0.63,0.03,3.36,0.64,-4.18,1.61,1.56,0.34,0.64,-0.00,-0.77,-0.02,9.43,-0.02,-2.36,0.63,5.04,-0.88
4766,0.78,-0.02,-0.63,0.03,4.12,0.11,-2.15,1.61,1.56,0.34,0.64,-0.00,-0.77,-0.02,9.43,-0.02,-2.36,-0.72,5.39,-0.71
4786,0.78,-0.02,-0.63,0.05,4.12,0.11,-2.15,1.61,1.56,0.34,0.72,-0.00,-0.69,-0.03,9.43,-0.02,-2.36,-0.72,5.39,-0.71
4806,0.78,-0.02,-0.63,0.05,5.89,0.91,0.72,1.61,1.56,0.34,0.72,-0.00,-0.69,-0.03,9.43,-0.02,-2.36,-0.76,5.36,-0.34
4826,0.78,-0.01,-0.62,0.06,5.89,0.91,0.72,1.61,1.56,0.34,0.78,0.00,-0.63,-0.04,9.43,-0.02,-2.36,-0.76,5.36,-0.34
4846,0.78,-0.01,-0.62,0.06,14.16,-2.54,6.58,1.61,1.56,0.34,0.78,0.00,-0.63,-0.04,9.43,-0.02,-2.36,-0.16,4.18,-0.17
4866,0.78,-0.01,-0.62,0.07,14.16,-2.54,6.58,1.61,1.56,0.34,0.80,-0.00,-0.60,-0.04,9.43,-0.02,-2.36,-0.16,4.18,-0.17
4886,0.78,-0.01,-0.62,0.07,10.56,2.71,9.53,1.61,1.56,0.34,0.80,-0.00,-0.60,-0.04,9.43,-0.02,-2.36,-0.16,1.44,0.29
4906,0.78,0.00,-0.62,0.07,10.56,2.71,9.53,1.61,1.56,0.34,0.78,-0.00,-0.62,-0.03,9.43,-0.02,-2.36,-0.16,1.44,0.29
4926,0.78,0.00,-0.62,0.07,13.59,-0.08,5.97,1.61,1.56,0.34,0.78,-0.00,-0.62,-0.03,9.43,-0.02,-2.36,0.36,-1.96,0.33
4946,0.78,0.02,-0.61,0.09,13.59,-0.08,5.97,1.61,1.56,0.34,0.76,0.04,-0.65,-0.00,9.43,-0.02,-2.36,0.36,-1.96,0.33
4966,0.78,0.02,-0.61,0.09,8.91,2.56,2.52,1.61,1.56,0.34,0.76,0.04,-0.65,-0.00,9.43,-0.02,-2.36,3.50,-1.54,-0.34
4986,0.78,0.03,-0.62,0.10,8.91,2.56,2.52,1.61,1.56,0.34,0.72,0.08,-0.68,0.03,9.43,-0.02,-2.36,3.50,-1.54,-0.34
5006,0.78,0.03,-0.62,0.10,8.68,5.86,-4.37,1.61,1.56,0.34,0.72,0.08,-0.68,0.03,9.43,-0.02,-2.36,2.19,-2.19,-0.13
5026,0.75,0.01,-0.65,0.09,8.68,5.86,-4.37,1.61,1.56,0.34,0.70,0.08,-0.71,0.04,9.43,-0.02,-2.36,2.19,-2.19,-0.13
5046,0.75,0.01,-0.65,0.09,10.09,-9.66,-9.39,1.61,1.56,0.34,0.70,0.08,-0.71,0.04,9.43,-0.02,-2.36,-0.01,-1.96,0.57
5066,0.74,-0.01,-0.66,0.09,10.09,-9.66,-9.39,1.61,1.56,0.34,0.67,0.08,-0.73,0.05,9.43,-0.02,-2.36,-0.01,-1.96,0.57
5086,0.74,-0.01,-0.66,0.09,12.28,-2.61,-3.76,1.61,1.56,0.34,0.67,0.08,-0.73,0.05,9.43,-0.02,-2.36,0.78,-1.40,0.42
5106,0.72,0.00,-0.68,0.10,12.28,-2.61,-3.76,1.61,1.56,0.34,0.66,0.08,-0.75,0.06,9.43,-0.02,-2.36,0.78,-1.40,0.42
5126,0.72,0.00,-0.68,0.10,12.28,-2.61,-3.76,0.06,-1.50,-0.10,0.66,0.08,-0.75,0.06,9.43,-0.02,-2.36,0.64,-1.02,0.41
5146,0.70,-0.00,-0.70,0.09,12.28,-2.61,-3.76,0.06,-1.50,-0.10,0.64,0.07,-0.76,0.06,9.43,-0.02,-2.36,0.64,-1.02,0.41
5166,0.70,-0.00,-0.70,0.09,9.33,-2.42,-2.27,0.06,-1.50,-0.10,0.64,0.07,-0.76,0.06,9.43,-0.02,-2.36,-0.41,-0.88,0.46
5186,0.68,-0.01,-0.73,0.09,9.33,-2.42,-2.27,0.06,-1.50,-0.10,0.63,0.06,-0.77,0.06,9.43,-0.02,-2.36,-0.41,-0.88,0.46
5206,0.68,-0.01,-0.73,0.09,9.33,-2.42,-2.27,-0.53,-1.67,0.38,0.63,0.06,-0.77,0.06,9.43,-0.02,-2.36,-0.18,-0.74,0.31
5226,0.66,-0.02,-0.75,0.09,9.33,-2.42,-2.27,-0.53,-1.67,0.38,0.62,0.06,-0.78,0.06,9.43,-0.02,-2.36,-0.18,-0.74,0.31
5246,0.66,-0.02,-0.75,0.09,9.95,-3.07,-1.80,-0.53,-1.67,0.38,0.62,0.06,-0.78,0.06,9.43,-0.02,-2.36,-0.36,-0.69,0.30
5266,0.63,-0.02,-0.77,0.08,9.95,-3.07,-1.80,-0.53,-1.67,0.38,0.61,0.05,-0.79,0.06,9.43,-0.02,-2.36,-0.36,-0.69,0.30
5286,0.63,-0.02,-0.77,0.08,9.41,-2.04,-1.04,-0.53,-1.67,0.38,0.61,0.05,-0.79,0.06,9.43,-0.02,-2.36,-0.16,-0.77,0.26
5306,0.61,-0.02,-0.79,0.08,9.41,-2.04,-1.04,-0.53,-1.67,0.38,0.60,0.04,-0.80,0.06,9.43,-0.02,-2.36,-0.16,-0.77,0.26
5370,0.61,-0.02,-0.79,0.08,9.61,0.26,-0.50,-0.53,-1.67,0.38,0.60,0.04,-0.80,0.06,9.43,-0.02,-2.36,-0.20,-0.93,0.30
5382,0.56,-0.04,-0.82,0.05,9.61,0.26,-0.50,-0.53,-1.67,0.38,0.56,0.03,-0.83,0.05,9.43,-0.02,-2.36,-0.20,-0.93,0.30
5390,0.56,-0.04,-0.82,0.05,8.84,-1.20,-1.65,-0.53,-1.67,0.38,0.56,0.03,-0.83,0.05,9.43,-0.02,-2.36,-0.32,-1.20,0.43
5404,0.56,-0.04,-0.83,0.04,8.84,-1.20,-1.65,-0.53,-1.67,0.38,0.56,0.03,-0.83,0.05,9.20,-0.48,-3.86,-0.32,-1.20,0.43
5414,0.56,-0.04,-0.83,0.04,8.84,-1.20,-1.65,-0.75,-0.88,-0.06,0.53,0.03,-0.85,0.05,9.20,-0.48,-3.86,-0.32,-1.20,0.43
5426,0.55,-0.05,-0.83,0.04,8.84,-1.20,-1.65,-0.75,-0.88,-0.06,0.53,0.03,-0.85,0.05,9.16,-0.13,-3.62,-0.32,-1.20,0.43
5446,0.55,-0.05,-0.83,0.04,7.45,-0.54,-2.19,-0.75,-0.88,-0.06,0.52,0.02,-0.85,0.05,9.16,-0.13,-3.62,-0.32,-1.20,0.43
5466,0.54,-0.05,-0.84,0.03,7.45,-0.54,-2.19,-0.75,-0.88,-0.06,0.52,0.02,-0.85,0.05,9.16,-0.13,-3.62,0.04,-1.67,0.18
5486,0.54,-0.05,-0.84,0.03,11.14,-0.73,-1.65,-0.75,-0.88,-0.06,0.49,0.02,-0.87,0.05,9.16,-0.13,-3.62,0.04,-1.67,0.18
5506,0.53,-0.06,-0.84,0.01,11.14,-0.73,-1.65,-0.75,-0.88,-0.06,0.49,0.02,-0.87,0.05,10.84,-0.67,-3.39,0.04,-1.67,0.18
5526,0.53,-0.06,-0.84,0.01,10.68,-2.80,-1.16,-0.75,-0.88,-0.06,0.45,0.02,-0.89,0.05,10.84,-0.67,-3.39,0.04,-1.67,0.18
5546,0.53,-0.07,-0.84,-0.01,10.68,-2.80,-1.16,-0.75,-0.88,-0.06,0.45,0.02,-0.89,0.05,10.84,-0.67,-3.39,-0.33,-2.05,0.35
5566,0.53,-0.07,-0.84,-0.01,10.68,-2.80,-1.16,-1.24,0.15,-0.07,0.41,0.01,-0.91,0.05,10.84,-0.67,-3.39,-0.33,-2.05,0.35
5586,0.54,-0.08,-0.84,-0.03,10.68,-2.80,-1.16,-1.24,0.15,-0.07,0.41,0.01,-0.91,0.05,10.84,-0.67,-3.39,-0.53,-2.44,0.46
5606,0.54,-0.08,-0.84,-0.03,10.68,-2.80,-1.16,-1.39,0.79,-0.20,0.36,-0.01,-0.93,0.03,10.84,-0.67,-3.39,-0.53,-2.44,0.46
5626,0.56,-0.09,-0.82,-0.05,10.68,-2.80,-1.16,-1.39,0.79,-0.20,0.36,-0.01,-0.93,0.03,17.29,1.82,-1.44,-0.53,-2.44,0.46
5646,0.56,-0.09,-0.82,-0.05,14.32,-4.14,-0.81,-1.39,0.79,-0.20,0.31,-0.03,-0.95,0.01,17.29,1.82,-1.44,-0.53,-2.44,0.46
5666,0.59,-0.08,-0.80,-0.05,14.32,-4.14,-0.81,-1.39,0.79,-0.20,0.31,-0.03,-0.95,0.01,17.29,1.82,-1.44,-1.32,-2.46,0.38
5686,0.59,-0.08,-0.80,-0.05,14.32,-4.14,-0.81,0.63,1.83,-0.33,0.29,-0.03,-0.96,0.01,17.29,1.82,-1.44,-1.32,-2.46,0.38
5706,0.62,-0.07,-0.78,-0.05,14.32,-4.14,-0.81,0.63,1.83,-0.33,0.29,-0.03,-0.96,0.01,17.29,1.82,-1.44,0.37,-1.07,0.03
5726,0.62,-0.07,-0.78,-0.05,10.45,1.11,-5.29,0.63,1.83,-0.33,0.28,-0.03,-0.96,-0.00,17.29,1.82,-1.44,0.37,-1.07,0.03
5746,0.65,-0.06,-0.75,-0.04,10.45,1.11,-5.29,0.63,1.83,-0.33,0.28,-0.03,-0.96,-0.00,17.29,1.82,-1.44,-0.58,-0.52,0.08
5766,0.65,-0.06,-0.75,-0.04,11.90,0.15,-3.76,0.63,1.83,-0.33,0.30,-0.03,-0.95,0.00,17.29,1.82,-1.44,-0.58,-0.52,0.08
5786,0.68,-0.07,-0.73,-0.04,11.90,0.15,-3.76,0.63,1.83,-0.33,0.30,-0.03,-0.95,0.00,17.29,1.82,-1.44,0.34,0.96,0.12
5806,0.68,-0.07,-0.73,-0.04,11.66,0.45,-3.91,0.63,1.83,-0.33,0.33,-0.03,-0.94,0.01,17.29,1.82,-1.44,0.34,0.96,0.12
5826,0.71,-0.07,-0.70,-0.03,11.66,0.45,-3.91,0.63,1.83,-0.33,0.33,-0.03,-0.94,0.01,17.29,1.82,-1.44,0.30,2.19,-0.01
5846,0.71,-0.07,-0.70,-0.03,9.33,0.11,-3.11,0.63,1.83,-0.33,0.39,-0.03,-0.92,0.01,17.29,1.82,-1.44,0.30,2.19,-0.01
5866,0.74,-0.07,-0.67,-0.02,9.33,0.11,-3.11,0.63,1.83,-0.33,0.39,-0.03,-0.92,0.01,17.29,1.82,-1.44,-0.14,3.06,-0.09
5886,0.74,-0.07,-0.67,-0.02,8.53,-1.08,-3.22,0.63,1.83,-0.33,0.46,-0.02,-0.89,0.01,17.29,1.82,-1.44,-0.14,3.06,-0.09
5906,0.77,-0.06,-0.64,-0.01,8.53,-1.08,-3.22,0.63,1.83,-0.33,0.46,-0.02,-0.89,0.01,17.29,1.82,-1.44,0.50,3.72,-0.45
5926,0.77,-0.06,-0.64,-0.01,7.19,-0.16,-2.73,0.63,1.83,-0.33,0.53,-0.01,-0.85,-0.00,17.29,1.82,-1.44,0.50,3.72,-0.45
5946,0.79,-0.06,-0.61,0.00,7.19,-0.16,-2.73,0.63,1.83,-0.33,0.53,-0.01,-0.85,-0.00,17.29,1.82,-1.44,-0.24,4.09,-0.65
5966,0.79,-0.06,-0.61,0.00,5.31,-0.70,-2.69,0.63,1.83,-0.33,0.60,-0.01,-0.80,-0.02,17.29,1.82,-1.44,-0.24,4.09,-0.65
5986,0.80,-0.05,-0.60,0.02,5.31,-0.70,-2.69,0.63,1.83,-0.33,0.60,-0.01,-0.80,-0.02,17.29,1.82,-1.44,-1.01,4.27,-0.49
6006,0.80,-0.05,-0.60,0.02,5.12,0.15,-2.07,0.63,1.83,-0.33,0.66,-0.00,-0.75,-0.03,17.29,1.82,-1.44,-1.01,4.27,-0.49
6026,0.80,-0.03,-0.59,0.02,5.12,0.15,-2.07,0.63,1.83,-0.33,0.66,-0.00,-0.75,-0.03,17.29,1.82,-1.44,-0.13,4.54,-0.54
6046,0.80,-0.03,-0.59,0.02,5.12,0.15,-2.07,0.91,0.30,-0.12,0.72,0.02,-0.69,-0.04,17.29,1.82,-1.44,-0.13,4.54,-0.54
6066,0.81,-0.01,-0.59,0.04,5.12,0.15,-2.07,0.91,0.30,-0.12,0.72,0.02,-0.69,-0.04,17.29,1.82,-1.44,0.38,4.09,-0.87
6086,0.81,-0.01,-0.59,0.04,8.38,-0.73,2.48,0.91,0.30,-0.12,0.76,0.04,-0.64,-0.04,17.29,1.82,-1.44,0.38,4.09,-0.87
6106,0.81,0.01,-0.58,0.04,8.38,-0.73,2.48,0.91,0.30,-0.12,0.76,0.04,-0.64,-0.04,17.29,1.82,-1.44,0.68,3.10,-0.79
6126,0.81,0.01,-0.58,0.04,9.83,2.60,6.01,0.91,0.30,-0.12,0.79,0.04,-0.62,-0.05,17.29,1.82,-1.44,0.68,3.10,-0.79
6146,0.82,0.03,-0.58,0.05,9.83,2.60,6.01,0.91,0.30,-0.12,0.79,0.04,-0.62,-0.05,17.29,1.82,-1.44,-0.39,1.43,-0.13
6166,0.82,0.03,-0.58,0.05,8.68,5.01,5.51,0.91,0.30,-0.12,0.78,0.03,-0.62,-0.05,17.29,1.82,-1.44,-0.39,1.43,-0.13
6186,0.81,0.03,-0.58,0.05,8.68,5.01,5.51,0.91,0.30,-0.12,0.78,0.03,-0.62,-0.05,17.29,1.82,-1.44,-0.35,-0.50,0.28
6206,0.81,0.03,-0.58,0.05,6.57,-0.04,1.30,0.91,0.30,-0.12,0.76,0.03,-0.64,-0.04,17.29,1.82,-1.44,-0.35,-0.50,0.28
6226,0.80,0.01,-0.60,0.06,6.57,-0.04,1.30,0.91,0.30,-0.12,0.76,0.03,-0.64,-0.04,17.29,1.82,-1.44,0.33,-1.66,0.27
6246,0.80,0.01,-0.60,0.06,13.77,-0.58,0.34,0.91,0.30,-0.12,0.75,0.04,-0.66,-0.03,17.29,1.82,-1.44,0.33,-1.66,0.27
6266,0.79,0.01,-0.61,0.06,13.77,-0.58,0.34,0.91,0.30,-0.12,0.75,0.04,-0.66,-0.03,17.29,1.82,-1.44,0.94,-0.86,0.07
6286,0.79,0.01,-0.61,0.06,19.60,2.45,11.52,0.91,0.30,-0.12,0.73,0.05,-0.68,-0.02,17.29,1.82,-1.44,0.94,-0.86,0.07
6306,0.77,-0.01,-0.63,0.06,19.60,2.45,11.52,0.91,0.30,-0.12,0.73,0.05,-0.68,-0.02,18.55,1.74,-3.51,0.94,-0.86,0.07
6326,0.77,-0.01,-0.63,0.06,6.39,1.68,-5.14,0.91,0.30,-0.12,0.70,0.04,-0.71,-0.01,18.55,1.74,-3.51,0.94,-0.86,0.07
6346,0.77,-0.03,-0.64,0.04,6.39,1.68,-5.14,0.91,0.30,-0.12,0.70,0.04,-0.71,-0.01,18.55,1.74,-3.51,0.10,-1.77,0.61
6366,0.77,-0.03,-0.64,0.04,4.96,-6.25,-2.00,0.91,0.30,-0.12,0.68,0.04,-0.73,0.00,18.55,1.74,-3.51,0.10,-1.77,0.61
6386,0.76,-0.05,-0.65,0.04,4.96,-6.25,-2.00,0.91,0.30,-0.12,0.68,0.04,-0.73,0.00,18.55,1.74,-3.51,0.56,-1.33,0.41
6406,0.76,-0.05,-0.65,0.04,10.33,-0.08,-1.69,0.91,0.30,-0.12,0.67,0.03,-0.74,0.00,18.55,1.74,-3.51,0.56,-1.33,0.41
6426,0.74,-0.06,-0.66,0.04,10.33,-0.08,-1.69,0.91,0.30,-0.12,0.67,0.03,-0.74,0.00,18.55,1.74,-3.51,-0.32,-1.19,0.45
6446,0.74,-0.06,-0.66,0.04,8.88,-4.14,-1.84,0.91,0.30,-0.12,0.65,0.03,-0.76,0.01,18.55,1.74,-3.51,-0.32,-1.19,0.45
6466,0.73,-0.05,-0.68,0.05,8.88,-4.14,-1.84,0.91,0.30,-0.12,0.65,0.03,-0.76,0.01,18.55,1.74,-3.51,0.40,-0.81,0.26
6486,0.73,-0.05,-0.68,0.05,9.45,-1.92,-1.57,0.91,0.30,-0.12,0.64,0.03,-0.77,0.01,18.55,1.74,-3.51,0.40,-0.81,0.26
6506,0.71,-0.05,-0.70,0.05,9.45,-1.92,-1.57,0.91,0.30,-0.12,0.64,0.03,-0.77,0.01,18.55,1.74,-3.51,-0.15,-0.74,0.26
6526,0.71,-0.05,-0.70,0.05,9.45,-1.92,-1.57,-0.25,-1.19,0.10,0.63,0.02,-0.77,0.01,18.55,1.74,-3.51,-0.15,-0.74,0.26
6546,0.69,-0.06,-0.72,0.05,9.45,-1.92,-1.57,-0.25,-1.19,0.10,0.63,0.02,-0.77,0.01,18.55,1.74,-3.51,-0.21,-0.52,0.30
6566,0.69,-0.06,-0.72,0.05,9.18,-3.72,-1.92,-0.25,-1.19,0.10,0.63,0.01,-0.78,0.01,18.55,1.74,-3.51,-0.21,-0.52,0.30
6586,0.67,-0.06,-0.74,0.05,9.18,-3.72,-1.92,-0.25,-1.19,0.10,0.63,0.01,-0.78,0.01,18.55,1.74,-3.51,-0.23,-0.52,0.22
6606,0.67,-0.06,-0.74,0.05,9.18,-3.72,-1.92,0.01,-1.29,-0.03,0.62,0.00,-0.79,0.01,18.55,1.74,-3.51,-0.23,-0.52,0.22
6626,0.65,-0.06,-0.75,0.05,9.18,-3.72,-1.92,0.01,-1.29,-0.03,0.62,0.00,-0.79,0.01,18.55,1.74,-3.51,-0.44,-0.57,0.23
6646,0.65,-0.06,-0.75,0.05,9.57,-1.96,-0.54,0.01,-1.29,-0.03,0.61,-0.01,-0.79,0.00,18.55,1.74,-3.51,-0.44,-0.57,0.23
6666,0.64,-0.07,-0.77,0.04,9.57,-1.96,-0.54,0.01,-1.29,-0.03,0.61,-0.01,-0.79,0.00,18.55,1.74,-3.51,-0.41,-0.71,0.25
6686,0.64,-0.07,-0.77,0.04,9.22,-1.77,-0.96,0.01,-1.29,-0.03,0.59,-0.01,-0.80,0.00,18.55,1.74,-3.51,-0.41,-0.71,0.25
6706,0.62,-0.07,-0.78,0.03,9.22,-1.77,-0.96,0.01,-1.29,-0.03,0.59,-0.01,-0.80,0.00,18.55,1.74,-3.51,-0.23,-0.85,0.22
6726,0.62,-0.07,-0.78,0.03,8.91,-2.19,-0.46,0.01,-1.29,-0.03,0.58,-0.02,-0.82,0.01,18.55,1.74,-3.51,-0.23,-0.85,0.22
6746,0.60,-0.08,-0.79,0.03,8.91,-2.19,-0.46,0.01,-1.29,-0.03,0.58,-0.02,-0.82,0.01,18.55,1.74,-3.51,0.03,-0.97,0.18
6766,0.60,-0.08,-0.79,0.03,8.38,-4.26,-1.46,0.01,-1.29,-0.03,0.56,-0.01,-0.83,0.02,18.55,1.74,-3.51,0.03,-0.97,0.18
6786,0.59,-0.08,-0.81,0.03,8.38,-4.26,-1.46,0.01,-1.29,-0.03,0.56,-0.01,-0.83,0.02,18.55,1.74,-3.51,0.66,-1.12,0.08
6806,0.59,-0.08,-0.81,0.03,9.26,0.11,-0.62,0.01,-1.29,-0.03,0.54,-0.01,-0.84,0.03,18.55,1.74,-3.51,0.66,-1.12,0.08
6826,0.58,-0.08,-0.81,0.02,9.26,0.11,-0.62,0.01,-1.29,-0.03,0.54,-0.01,-0.84,0.03,18.55,1.74,-3.51,0.63,-1.39,0.14
6846,0.58,-0.08,-0.81,0.02,9.37,0.18,-3.37,0.01,-1.29,-0.03,0.51,-0.01,-0.86,0.03,18.55,1.74,-3.51,0.63,-1.39,0.14
6866,0.56,-0.08,-0.82,0.01,9.37,0.18,-3.37,0.01,-1.29,-0.03,0.51,-0.01,-0.86,0.03,18.55,1.74,-3.51,-0.06,-1.50,0.21
6886,0.56,-0.08,-0.82,0.01,9.98,-1.16,-3.11,0.01,-1.29,-0.03,0.49,-0.01,-0.87,0.03,18.55,1.74,-3.51,-0.06,-1.50,0.21
6906,0.56,-0.09,-0.83,-0.01,9.98,-1.16,-3.11,0.01,-1.29,-0.03,0.49,-0.01,-0.87,0.03,18.55,1.74,-3.51,-0.12,-1.53,0.23
6926,0.56,-0.09,-0.83,-0.01,9.64,0.22,-1.31,0.01,-1.29,-0.03,0.46,-0.02,-0.89,0.03,18.55,1.74,-3.51,-0.12,-1.53,0.23
6946,0.55,-0.11,-0.83,-0.03,9.64,0.22,-1.31,0.01,-1.29,-0.03,0.46,-0.02,-0.89,0.03,18.55,1.74,-3.51,-0.45,-1.70,0.27
6966,0.55,-0.11,-0.83,-0.03,9.64,0.22,-1.31,-1.15,0.02,-0.03,0.42,-0.03,-0.91,0.01,18.55,1.74,-3.51,-0.45,-1.70,0.27
6986,0.55,-0.12,-0.83,-0.05,9.64,0.22,-1.31,-1.15,0.02,-0.03,0.42,-0.03,-0.91,0.01,18.55,1.74,-3.51,-0.90,-2.01,0.30
7006,0.55,-0.12,-0.83,-0.05,14.70,-2.69,0.45,-1.15,0.02,-0.03,0.38,-0.04,-0.92,0.00,18.55,1.74,-3.51,-0.90,-2.01,0.30
7026,0.56,-0.11,-0.82,-0.07,14.70,-2.69,0.45,-1.15,0.02,-0.03,0.38,-0.04,-0.92,0.00,18.55,1.74,-3.51,-0.68,-2.12,0.19
7046,0.56,-0.11,-0.82,-0.07,14.70,-2.69,0.45,-0.18,1.25,-0.57,0.34,-0.05,-0.94,-0.01,18.55,1.74,-3.51,-0.68,-2.12,0.19
7066,0.58,-0.10,-0.81,-0.07,14.70,-2.69,0.45,-0.18,1.25,-0.57,0.34,-0.05,-0.94,-0.01,18.55,1.74,-3.51,-0.88,-2.02,0.16
7086,0.58,-0.10,-0.81,-0.07,10.33,-3.34,-4.37,-0.18,1.25,-0.57,0.32,-0.05,-0.95,-0.01,18.55,1.74,-3.51,-0.88,-2.02,0.16
7106,0.60,-0.09,-0.79,-0.07,10.33,-3.34,-4.37,-0.18,1.25,-0.57,0.32,-0.05,-0.95,-0.01,18.55,1.74,-3.51,0.22,-1.38,-0.34
7126,0.60,-0.09,-0.79,-0.07,9.68,-1.84,-5.56,-0.18,1.25,-0.57,0.30,-0.04,-0.95,-0.01,18.55,1.74,-3.51,0.22,-1.38,-0.34
7146,0.63,-0.07,-0.77,-0.05,9.68,-1.84,-5.56,-0.18,1.25,-0.57,0.30,-0.04,-0.95,-0.01,18.55,1.74,-3.51,0.06,-0.67,-0.37
7166,0.63,-0.07,-0.77,-0.05,8.56,1.03,-4.22,-0.18,1.25,-0.57,0.29,-0.04,-0.95,-0.01,18.55,1.74,-3.51,0.06,-0.67,-0.37
7186,0.65,-0.06,-0.76,-0.04,8.56,1.03,-4.22,-0.18,1.25,-0.57,0.29,-0.04,-0.95,-0.01,18.55,1.74,-3.51,-0.24,-0.29,-0.30
7206,0.65,-0.06,-0.76,-0.04,10.63,0.38,-3.64,-0.18,1.25,-0.57,0.31,-0.03,-0.95,-0.01,18.55,1.74,-3.51,-0.24,-0.29,-0.30
7226,0.67,-0.06,-0.74,-0.03,10.63,0.38,-3.64,-0.18,1.25,-0.57,0.31,-0.03,-0.95,-0.01,18.55,1.74,-3.51,0.44,1.04,-0.29
7246,0.67,-0.06,-0.74,-0.03,9.95,1.45,-2.73,-0.18,1.25,-0.57,0.35,-0.02,-0.94,-0.00,18.55,1.74,-3.51,0.44,1.04,-0.29
7266,0.69,-0.05,-0.72,-0.03,9.95,1.45,-2.73,-0.18,1.25,-0.57,0.35,-0.02,-0.94,-0.00,18.55,1.74,-3.51,0.60,1.97,-0.21
7286,0.69,-0.05,-0.72,-0.03,9.64,0.22,-1.73,-0.18,1.25,-0.57,0.39,-0.02,-0.92,-0.01,18.55,1.74,-3.51,0.60,1.97,-0.21
7306,0.72,-0.05,-0.70,-0.02,9.64,0.22,-1.73,-0.18,1.25,-0.57,0.39,-0.02,-0.92,-0.01,18.55,1.74,-3.51,-0.33,2.56,-0.23
7329,0.72,-0.05,-0.70,-0.02,9.53,0.07,-1.96,-0.18,1.25,-0.57,0.45,-0.01,-0.89,-0.01,18.55,1.74,-3.51,-0.33,2.56,-0.23
7346,0.75,-0.05,-0.66,-0.00,9.53,0.07,-1.96,-0.18,1.25,-0.57,0.45,-0.01,-0.89,-0.01,18.55,1.74,-3.51,0.24,3.21,-0.33
7366,0.75,-0.05,-0.66,-0.00,8.14,-1.00,-1.73,-0.18,1.25,-0.57,0.51,-0.00,-0.86,-0.02,18.55,1.74,-3.51,0.24,3.21,-0.33
7386,0.76,-0.04,-0.65,0.00,8.14,-1.00,-1.73,-0.18,1.25,-0.57,0.51,-0.00,-0.86,-0.02,10.46,0.36,-5.04,0.24,3.21,-0.33
7406,0.76,-0.04,-0.65,0.00,8.14,-1.00,-1.73,0.54,1.21,0.38,0.58,0.00,-0.82,-0.02,10.46,0.36,-5.04,0.24,3.21,-0.33
7426,0.77,-0.04,-0.63,0.02,8.14,-1.00,-1.73,0.54,1.21,0.38,0.58,0.00,-0.82,-0.02,10.46,0.36,-5.04,-0.27,4.02,-0.30
7446,0.77,-0.04,-0.63,0.02,6.92,0.57,-1.61,0.54,1.21,0.38,0.64,-0.00,-0.77,-0.04,10.46,0.36,-5.04,-0.27,4.02,-0.30
7466,0.78,-0.04,-0.62,0.02,6.92,0.57,-1.61,0.54,1.21,0.38,0.64,-0.00,-0.77,-0.04,10.46,0.36,-5.04,-0.81,4.11,-0.15
7486,0.78,-0.04,-0.62,0.02,6.92,0.57,-1.61,0.34,0.75,0.24,0.70,-0.00,-0.71,-0.05,10.46,0.36,-5.04,-0.81,4.11,-0.15
7506,0.79,-0.04,-0.61,0.03,6.92,0.57,-1.61,0.34,0.75,0.24,0.70,-0.00,-0.71,-0.05,11.12,1.25,-5.12,-0.81,4.11,-0.15
7526,0.79,-0.04,-0.61,0.03,6.38,-1.08,-0.43,0.34,0.75,0.24,0.75,0.01,-0.66,-0.05,11.12,1.25,-5.12,-0.81,4.11,-0.15
7546,0.79,-0.03,-0.61,0.04,6.38,-1.08,-0.43,0.34,0.75,0.24,0.75,0.01,-0.66,-0.05,11.12,1.25,-5.12,0.21,3.76,-0.32
7566,0.79,-0.03,-0.61,0.04,8.98,-1.23,3.63,0.34,0.75,0.24,0.79,0.01,-0.61,-0.06,11.12,1.25,-5.12,0.21,3.76,-0.32
7586,0.79,-0.02,-0.61,0.05,8.98,-1.23,3.63,0.34,0.75,0.24,0.79,0.01,-0.61,-0.06,11.12,1.25,-5.12,-0.07,2.62,-0.22
7606,0.79,-0.02,-0.61,0.05,9.68,0.80,5.51,0.34,0.75,0.24,0.80,0.02,-0.60,-0.05,11.12,1.25,-5.12,-0.07,2.62,-0.22
7626,0.79,-0.01,-0.61,0.05,9.68,0.80,5.51,0.34,0.75,0.24,0.80,0.02,-0.60,-0.05,11.12,1.25,-5.12,0.18,0.66,0.05
7646,0.79,-0.01,-0.61,0.05,11.60,-0.08,6.51,0.34,0.75,0.24,0.78,0.02,-0.62,-0.04,11.12,1.25,-5.12,0.18,0.66,0.05
7666,0.80,0.01,-0.60,0.06,11.60,-0.08,6.51,0.34,0.75,0.24,0.78,0.02,-0.62,-0.04,11.12,1.25,-5.12,0.65,-1.54,0.17
7686,0.80,0.01,-0.60,0.06,4.96,0.80,2.33,0.34,0.75,0.24,0.76,0.03,-0.64,-0.04,11.12,1.25,-5.12,0.65,-1.54,0.17
7706,0.78,0.01,-0.62,0.07,4.96,0.80,2.33,0.34,0.75,0.24,0.76,0.03,-0.64,-0.04,11.12,1.25,-5.12,0.52,-1.41,-0.13
7726,0.78,0.01,-0.62,0.07,16.00,1.64,1.11,0.34,0.75,0.24,0.75,0.04,-0.66,-0.02,11.12,1.25,-5.12,0.52,-1.41,-0.13
7746,0.78,0.01,-0.63,0.06,16.00,1.64,1.11,0.34,0.75,0.24,0.75,0.04,-0.66,-0.02,11.12,1.25,-5.12,0.74,-1.32,0.13
7766,0.78,0.01,-0.63,0.06,14.08,-0.77,5.16,0.34,0.75,0.24,0.73,0.06,-0.68,-0.01,11.12,1.25,-5.12,0.74,-1.32,0.13
7786,0.76,-0.01,-0.65,0.07,14.08,-0.77,5.16,0.34,0.75,0.24,0.73,0.06,-0.68,-0.01,11.12,1.25,-5.12,0.22,-1.60,0.27
7806,0.76,-0.01,-0.65,0.07,8.34,-0.46,-1.38,0.34,0.75,0.24,0.70,0.06,-0.71,0.00,11.12,1.25,-5.12,0.22,-1.60,0.27
7826,0.75,-0.02,-0.66,0.06,8.34,-0.46,-1.38,0.34,0.75,0.24,0.70,0.06,-0.71,0.00,11.12,1.25,-5.12,0.50,-1.56,0.47
7846,0.75,-0.02,-0.66,0.06,8.34,-0.46,-1.38,-0.22,-0.65,0.31,0.69,0.06,-0.72,0.02,11.12,1.25,-5.12,0.50,-1.56,0.47
7866,0.74,-0.02,-0.67,0.06,8.34,-0.46,-1.38,-0.22,-0.65,0.31,0.69,0.06,-0.72,0.02,11.12,1.25,-5.12,0.95,-1.21,0.29
7886,0.74,-0.02,-0.67,0.06,9.91,-1.84,-1.80,-0.22,-0.65,0.31,0.67,0.05,-0.74,0.02,11.12,1.25,-5.12,0.95,-1.21,0.29
7906,0.73,-0.03,-0.68,0.06,9.91,-1.84,-1.80,-0.22,-0.65,0.31,0.67,0.05,-0.74,0.02,9.35,-0.79,-2.29,0.95,-1.21,0.29
7926,0.73,-0.03,-0.68,0.06,9.91,-1.84,-1.80,-0.10,-1.07,0.05,0.66,0.06,-0.75,0.02,9.35,-0.79,-2.29,0.95,-1.21,0.29
7946,0.71,-0.03,-0.70,0.06,9.91,-1.84,-1.80,-0.10,-1.07,0.05,0.66,0.06,-0.75,0.02,9.35,-0.79,-2.29,0.44,-0.84,0.16
7966,0.71,-0.03,-0.70,0.06,9.18,-2.34,-1.88,-0.10,-1.07,0.05,0.65,0.05,-0.76,0.02,9.35,-0.79,-2.29,0.44,-0.84,0.16
7986,0.69,-0.03,-0.72,0.07,9.18,-2.34,-1.88,-0.10,-1.07,0.05,0.65,0.05,-0.76,0.02,9.35,-0.79,-2.29,-0.13,-0.65,0.16
8006,0.69,-0.03,-0.72,0.07,9.18,-1.42,-1.69,-0.10,-1.07,0.05,0.64,0.05,-0.77,0.03,9.35,-0.79,-2.29,-0.13,-0.65,0.16
8026,0.67,-0.02,-0.74,0.07,9.18,-1.42,-1.69,-0.10,-1.07,0.05,0.64,0.05,-0.77,0.03,9.35,-0.79,-2.29,0.30,-0.51,0.11
8046,0.67,-0.02,-0.74,0.07,9.48,-0.81,-1.57,-0.10,-1.07,0.05,0.63,0.06,-0.77,0.03,9.35,-0.79,-2.29,0.30,-0.51,0.11
8066,0.65,-0.02,-0.75,0.07,9.48,-0.81,-1.57,-0.10,-1.07,0.05,0.63,0.06,-0.77,0.03,9.35,-0.79,-2.29,0.26,-0.49,0.13
8086,0.65,-0.02,-0.75,0.07,9.83,-0.62,-1.46,-0.10,-1.07,0.05,0.62,0.06,-0.78,0.04,9.35,-0.79,-2.29,0.26,-0.49,0.13
8106,0.63,-0.02,-0.77,0.07,9.83,-0.62,-1.46,-0.10,-1.07,0.05,0.62,0.06,-0.78,0.04,9.35,-0.79,-2.29,0.12,-0.52,0.14
8126,0.63,-0.02,-0.77,0.07,9.64,-0.73,-1.50,-0.10,-1.07,0.05,0.61,0.05,-0.79,0.04,9.35,-0.79,-2.29,0.12,-0.52,0.14
8146,0.62,-0.02,-0.78,0.06,9.64,-0.73,-1.50,-0.10,-1.07,0.05,0.61,0.05,-0.79,0.04,9.35,-0.79,-2.29,0.04,-0.60,0.17
8166,0.62,-0.02,-0.78,0.06,9.33,-1.08,-1.57,-0.10,-1.07,0.05,0.60,0.05,-0.80,0.04,9.35,-0.79,-2.29,0.04,-0.60,0.17
8186,0.60,-0.02,-0.80,0.05,9.33,-1.08,-1.57,-0.10,-1.07,0.05,0.60,0.05,-0.80,0.04,9.35,-0.79,-2.29,-0.10,-0.72,0.19
8206,0.60,-0.02,-0.80,0.05,9.18,-1.27,-1.73,-0.10,-1.07,0.05,0.59,0.05,-0.81,0.04,9.35,-0.79,-2.29,-0.10,-0.72,0.19
8226,0.58,-0.02,-0.81,0.04,9.18,-1.27,-1.73,-0.10,-1.07,0.05,0.59,0.05,-0.81,0.04,9.35,-0.79,-2.29,-0.19,-0.87,0.17
8246,0.58,-0.02,-0.81,0.04,9.45,-0.62,-1.61,-0.10,-1.07,0.05,0.57,0.04,-0.82,0.03,9.35,-0.79,-2.29,-0.19,-0.87,0.17
8266,0.56,-0.03,-0.82,0.03,9.45,-0.62,-1.61,-0.10,-1.07,0.05,0.57,0.04,-0.82,0.03,9.35,-0.79,-2.29,-0.20,-1.05,0.21
8286,0.56,-0.03,-0.82,0.03,9.45,-0.62,-1.61,-0.87,-0.77,0.05,0.55,0.04,-0.84,0.03,9.35,-0.79,-2.29,-0.20,-1.05,0.21
8306,0.55,-0.04,-0.83,0.02,9.45,-0.62,-1.61,-0.87,-0.77,0.05,0.55,0.04,-0.84,0.03,9.35,-0.79,-2.29,-0.22,-1.36,0.20
8326,0.55,-0.04,-0.83,0.02,9.57,-2.42,-3.53,-0.87,-0.77,0.05,0.52,0.03,-0.85,0.03,9.35,-0.79,-2.29,-0.22,-1.36,0.20
8346,0.54,-0.05,-0.84,0.00,9.57,-2.42,-3.53,-0.87,-0.77,0.05,0.52,0.03,-0.85,0.03,9.35,-0.79,-2.29,-0.33,-1.54,0.20
8366,0.54,-0.05,-0.84,0.00,9.57,-2.42,-3.53,-1.48,-0.28,0.14,0.50,0.02,-0.87,0.01,9.35,-0.79,-2.29,-0.33,-1.54,0.20
8386,0.54,-0.07,-0.84,-0.02,9.57,-2.42,-3.53,-1.48,-0.28,0.14,0.50,0.02,-0.87,0.01,9.35,-0.79,-2.29,-1.07,-1.49,0.21
8406,0.54,-0.07,-0.84,-0.02,13.25,-1.50,0.80,-1.48,-0.28,0.14,0.47,0.01,-0.88,0.00,9.35,-0.79,-2.29,-1.07,-1.49,0.21
8426,0.55,-0.08,-0.83,-0.04,13.25,-1.50,0.80,-1.48,-0.28,0.14,0.47,0.01,-0.88,0.00,9.35,-0.79,-2.29,-0.66,-1.84,0.07
8446,0.55,-0.08,-0.83,-0.04,13.25,-1.50,0.80,-0.74,1.46,-0.52,0.43,-0.00,-0.90,-0.02,9.35,-0.79,-2.29,-0.66,-1.84,0.07
8466,0.58,-0.08,-0.81,-0.06,13.25,-1.50,0.80,-0.74,1.46,-0.52,0.43,-0.00,-0.90,-0.02,9.35,-0.79,-2.29,-1.06,-2.32,0.23
8486,0.58,-0.08,-0.81,-0.06,14.82,2.56,3.48,-0.74,1.46,-0.52,0.38,-0.03,-0.92,-0.05,9.35,-0.79,-2.29,-1.06,-2.32,0.23
8506,0.61,-0.08,-0.79,-0.08,14.82,2.56,3.48,-0.74,1.46,-0.52,0.38,-0.03,-0.92,-0.05,9.35,-0.79,-2.29,-2.29,-2.36,0.63
8526,0.61,-0.08,-0.79,-0.08,10.79,0.22,-4.22,-0.74,1.46,-0.52,0.34,-0.06,-0.93,-0.07,9.35,-0.79,-2.29,-2.29,-2.36,0.63
8546,0.63,-0.09,-0.76,-0.10,10.79,0.22,-4.22,-0.74,1.46,-0.52,0.34,-0.06,-0.93,-0.07,9.35,-0.79,-2.29,-1.34,-1.94,0.54
8566,0.63,-0.09,-0.76,-0.10,12.55,-1.00,-5.75,-0.74,1.46,-0.52,0.32,-0.07,-0.94,-0.07,9.35,-0.79,-2.29,-1.34,-1.94,0.54
8586,0.66,-0.09,-0.74,-0.10,12.55,-1.00,-5.75,-0.74,1.46,-0.52,0.32,-0.07,-0.94,-0.07,9.35,-0.79,-2.29,-0.38,-1.08,0.60
8606,0.66,-0.09,-0.74,-0.10,10.18,-0.54,-5.79,-0.74,1.46,-0.52,0.33,-0.07,-0.94,-0.06,9.35,-0.79,-2.29,-0.38,-1.08,0.60
8626,0.69,-0.09,-0.71,-0.10,10.18,-0.54,-5.79,-0.74,1.46,-0.52,0.33,-0.07,-0.94,-0.06,9.35,-0.79,-2.29,0.79,0.37,0.41
8646,0.69,-0.09,-0.71,-0.10,9.68,-2.23,-3.49,-0.74,1.46,-0.52,0.36,-0.07,-0.93,-0.04,9.35,-0.79,-2.29,0.79,0.37,0.41
8666,0.71,-0.09,-0.69,-0.09,9.68,-2.23,-3.49,-0.74,1.46,-0.52,0.36,-0.07,-0.93,-0.04,9.35,-0.79,-2.29,0.90,1.60,0.34
8686,0.71,-0.09,-0.69,-0.09,8.56,0.45,-2.65,-0.74,1.46,-0.52,0.40,-0.08,-0.91,-0.05,9.35,-0.79,-2.29,0.90,1.60,0.34
8706,0.73,-0.09,-0.67,-0.08,8.56,0.45,-2.65,-0.74,1.46,-0.52,0.40,-0.08,-0.91,-0.05,9.35,-0.79,-2.29,-0.51,2.38,0.34
8726,0.73,-0.09,-0.67,-0.08,8.26,-1.23,-2.69,-0.74,1.46,-0.52,0.45,-0.08,-0.89,-0.06,9.35,-0.79,-2.29,-0.51,2.38,0.34
8746,0.75,-0.09,-0.65,-0.05,8.26,-1.23,-2.69,-0.74,1.46,-0.52,0.45,-0.08,-0.89,-0.06,7.56,-0.79,-3.82,-0.51,2.38,0.34
8766,0.75,-0.09,-0.65,-0.05,6.80,-1.00,-2.76,-0.74,1.46,-0.52,0.52,-0.06,-0.85,-0.04,7.56,-0.79,-3.82,-0.51,2.38,0.34
8786,0.77,-0.08,-0.63,-0.03,6.80,-1.00,-2.76,-0.74,1.46,-0.52,0.52,-0.06,-0.85,-0.04,7.56,-0.79,-3.82,1.57,3.90,-0.26
8806,0.77,-0.08,-0.63,-0.03,6.80,-1.00,-2.76,1.27,0.64,0.54,0.59,-0.04,-0.80,-0.04,7.56,-0.79,-3.82,1.57,3.90,-0.26
8826,0.77,-0.07,-0.63,-0.01,6.80,-1.00,-2.76,1.27,0.64,0.54,0.59,-0.04,-0.80,-0.04,7.56,-0.79,-3.82,0.37,4.23,-0.42
8846,0.77,-0.07,-0.63,-0.01,7.27,0.57,-0.96,1.27,0.64,0.54,0.66,-0.04,-0.75,-0.05,7.56,-0.79,-3.82,0.37,4.23,-0.42
8866,0.78,-0.06,-0.63,0.01,7.27,0.57,-0.96,1.27,0.64,0.54,0.66,-0.04,-0.75,-0.05,7.56,-0.79,-3.82,-0.37,4.34,-0.05
8886,0.78,-0.06,-0.63,0.01,7.27,0.57,-0.96,0.84,0.13,0.36,0.72,-0.03,-0.69,-0.05,7.56,-0.79,-3.82,-0.37,4.34,-0.05
8906,0.78,-0.05,-0.62,0.03,7.27,0.57,-0.96,0.84,0.13,0.36,0.72,-0.03,-0.69,-0.05,7.56,-0.79,-3.82,0.12,4.17,0.01
8926,0.78,-0.05,-0.62,0.03,7.72,1.26,1.41,0.84,0.13,0.36,0.77,-0.03,-0.64,-0.05,7.56,-0.79,-3.82,0.12,4.17,0.01
8946,0.78,-0.04,-0.62,0.04,7.72,1.26,1.41,0.84,0.13,0.36,0.77,-0.03,-0.64,-0.05,7.56,-0.79,-3.82,0.11,3.59,0.02
8966,0.78,-0.04,-0.62,0.04,9.53,-1.35,4.40,0.84,0.13,0.36,0.80,-0.02,-0.60,-0.05,7.56,-0.79,-3.82,0.11,3.59,0.02
8986,0.78,-0.03,-0.63,0.06,9.53,-1.35,4.40,0.84,0.13,0.36,0.80,-0.02,-0.60,-0.05,7.56,-0.79,-3.82,0.46,2.19,0.01
9006,0.78,-0.03,-0.63,0.06,10.98,1.57,6.85,0.84,0.13,0.36,0.80,-0.01,-0.60,-0.04,7.56,-0.79,-3.82,0.46,2.19,0.01
9026,0.77,-0.03,-0.63,0.07,10.98,1.57,6.85,0.84,0.13,0.36,0.80,-0.01,-0.60,-0.04,7.56,-0.79,-3.82,0.39,0.12,0.17
9046,0.77,-0.03,-0.63,0.07,11.17,2.68,6.32,0.84,0.13,0.36,0.78,-0.01,-0.62,-0.03,7.56,-0.79,-3.82,0.39,0.12,0.17
9066,0.77,-0.02,-0.63,0.08,11.17,2.68,6.32,0.84,0.13,0.36,0.78,-0.01,-0.62,-0.03,7.56,-0.79,-3.82,0.68,-1.80,0.15
9086,0.77,-0.02,-0.63,0.08,8.22,-0.62,0.57,0.84,0.13,0.36,0.76,-0.00,-0.65,-0.02,7.56,-0.79,-3.82,0.68,-1.80,0.15
9106,0.77,-0.02,-0.64,0.08,8.22,-0.62,0.57,0.84,0.13,0.36,0.76,-0.00,-0.65,-0.02,7.56,-0.79,-3.82,0.79,-1.29,0.08
9126,0.77,-0.02,-0.64,0.08,12.79,3.52,1.03,0.84,0.13,0.36,0.74,0.00,-0.67,-0.01,7.56,-0.79,-3.82,0.79,-1.29,0.08
9146,0.76,-0.02,-0.65,0.07,12.79,3.52,1.03,0.84,0.13,0.36,0.74,0.00,-0.67,-0.01,14.87,-0.86,-3.36,0.79,-1.29,0.08
9166,0.76,-0.02,-0.65,0.07,9.87,2.06,-2.99,0.84,0.13,0.36,0.72,-0.00,-0.69,-0.00,14.87,-0.86,-3.36,0.79,-1.29,0.08
9186,0.74,-0.04,-0.66,0.07,9.87,2.06,-2.99,0.84,0.13,0.36,0.72,-0.00,-0.69,-0.00,14.87,-0.86,-3.36,-0.04,-1.52,0.48
9206,0.74,-0.04,-0.66,0.07,8.95,-4.30,-3.45,0.84,0.13,0.36,0.70,-0.01,-0.71,0.00,14.87,-0.86,-3.36,-0.04,-1.52,0.48
9226,0.73,-0.06,-0.67,0.07,8.95,-4.30,-3.45,0.84,0.13,0.36,0.70,-0.01,-0.71,0.00,14.87,-0.86,-3.36,-0.07,-1.26,0.40
9246,0.73,-0.06,-0.67,0.07,8.95,-4.30,-3.45,-0.74,-0.92,0.36,0.69,-0.03,-0.72,-0.00,14.87,-0.86,-3.36,-0.07,-1.26,0.40
9266,0.72,-0.07,-0.69,0.06,8.95,-4.30,-3.45,-0.74,-0.92,0.36,0.69,-0.03,-0.72,-0.00,14.87,-0.86,-3.36,-0.77,-1.04,0.48
9286,0.72,-0.07,-0.69,0.06,8.18,-3.68,-1.38,-0.74,-0.92,0.36,0.68,-0.04,-0.74,-0.00,14.87,-0.86,-3.36,-0.77,-1.04,0.48
9306,0.71,-0.07,-0.70,0.06,8.18,-3.68,-1.38,-0.74,-0.92,0.36,0.68,-0.04,-0.74,-0.00,14.87,-0.86,-3.36,-0.37,-0.87,0.32
9326,0.71,-0.07,-0.70,0.06,8.18,-3.68,-1.38,-0.52,-0.93,0.15,0.66,-0.05,-0.75,-0.01,14.87,-0.86,-3.36,-0.37,-0.87,0.32
9346,0.69,-0.08,-0.71,0.05,8.18,-3.68,-1.38,-0.52,-0.93,0.15,0.66,-0.05,-0.75,-0.01,14.87,-0.86,-3.36,-0.60,-0.72,0.24
9366,0.69,-0.08,-0.71,0.05,9.14,-1.92,-1.73,-0.52,-0.93,0.15,0.65,-0.06,-0.75,-0.01,14.87,-0.86,-3.36,-0.60,-0.72,0.24
9386,0.68,-0.09,-0.73,0.05,9.14,-1.92,-1.73,-0.52,-0.93,0.15,0.65,-0.06,-0.75,-0.01,14.87,-0.86,-3.36,-0.65,-0.58,0.22
9406,0.68,-0.09,-0.73,0.05,9.14,-1.92,-1.73,-0.74,-1.03,0.13,0.64,-0.07,-0.76,-0.02,14.87,-0.86,-3.36,-0.65,-0.58,0.22
9426,0.66,-0.10,-0.74,0.04,9.14,-1.92,-1.73,-0.74,-1.03,0.13,0.64,-0.07,-0.76,-0.02,14.87,-0.86,-3.36,-0.61,-0.59,0.18
9446,0.66,-0.10,-0.74,0.04,8.91,-2.57,-1.35,-0.74,-1.03,0.13,0.63,-0.08,-0.77,-0.02,14.87,-0.86,-3.36,-0.61,-0.59,0.18
9466,0.65,-0.11,-0.75,0.04,8.91,-2.57,-1.35,-0.74,-1.03,0.13,0.63,-0.08,-0.77,-0.02,14.87,-0.86,-3.36,-0.46,-0.61,0.13
9486,0.65,-0.11,-0.75,0.04,9.37,-2.30,-1.57,-0.74,-1.03,0.13,0.62,-0.09,-0.78,-0.03,14.87,-0.86,-3.36,-0.46,-0.61,0.13
9506,0.63,-0.12,-0.77,0.03,9.37,-2.30,-1.57,-0.74,-1.03,0.13,0.62,-0.09,-0.78,-0.03,9.28,-0.40,-1.63,-0.46,-0.61,0.13
9526,0.63,-0.12,-0.77,0.03,9.68,-0.73,-0.81,-0.74,-1.03,0.13,0.61,-0.10,-0.78,-0.04,9.28,-0.40,-1.63,-0.46,-0.61,0.13
9546,0.62,-0.13,-0.78,0.02,9.68,-0.73,-0.81,-0.74,-1.03,0.13,0.61,-0.10,-0.78,-0.04,9.28,-0.40,-1.63,-0.79,-0.81,0.13
9566,0.62,-0.13,-0.78,0.02,9.48,-2.92,-0.31,-0.74,-1.03,0.13,0.59,-0.11,-0.80,-0.04,9.28,-0.40,-1.63,-0.79,-0.81,0.13
9586,0.60,-0.13,-0.79,0.01,9.48,-2.92,-0.31,-0.74,-1.03,0.13,0.59,-0.11,-0.80,-0.04,9.28,-0.40,-1.63,-0.31,-0.96,0.08
9606,0.60,-0.13,-0.79,0.01,9.37,-3.15,-0.16,-0.74,-1.03,0.13,0.58,-0.11,-0.81,-0.04,9.28,-0.40,-1.63,-0.31,-0.96,0.08
9626,0.59,-0.13,-0.79,0.01,9.37,-3.15,-0.16,-0.74,-1.03,0.13,0.58,-0.11,-0.81,-0.04,9.28,-0.40,-1.63,0.25,-1.16,-0.01
9646,0.59,-0.13,-0.79,0.01,9.26,1.11,-1.65,-0.74,-1.03,0.13,0.56,-0.11,-0.82,-0.03,9.28,-0.40,-1.63,0.25,-1.16,-0.01
9666,0.58,-0.14,-0.80,-0.00,9.26,1.11,-1.65,-0.74,-1.03,0.13,0.56,-0.11,-0.82,-0.03,9.28,-0.40,-1.63,-0.26,-1.32,0.09
9686,0.58,-0.14,-0.80,-0.00,9.26,1.11,-1.65,-1.13,-0.64,-0.14,0.53,-0.11,-0.84,-0.03,9.28,-0.40,-1.63,-0.26,-1.32,0.09
9706,0.57,-0.15,-0.81,-0.02,9.26,1.11,-1.65,-1.13,-0.64,-0.14,0.53,-0.11,-0.84,-0.03,9.28,-0.40,-1.63,0.25,-1.37,0.17
9726,0.57,-0.15,-0.81,-0.02,9.52,-4.68,-0.46,-1.13,-0.64,-0.14,0.51,-0.11,-0.85,-0.02,9.28,-0.40,-1.63,0.25,-1.37,0.17
9746,0.56,-0.17,-0.81,-0.03,9.52,-4.68,-0.46,-1.13,-0.64,-0.14,0.51,-0.11,-0.85,-0.02,9.28,-0.40,-1.63,0.15,-1.59,0.22
9766,0.56,-0.17,-0.81,-0.03,9.52,-4.68,-0.46,-1.44,-0.39,-0.50,0.48,-0.12,-0.87,-0.02,9.28,-0.40,-1.63,0.15,-1.59,0.22
9786,0.55,-0.18,-0.82,-0.05,9.52,-4.68,-0.46,-1.44,-0.39,-0.50,0.48,-0.12,-0.87,-0.02,9.28,-0.40,-1.63,-0.54,-1.62,0.22
9806,0.55,-0.18,-0.82,-0.05,10.98,-4.64,-4.07,-1.44,-0.39,-0.50,0.45,-0.13,-0.88,-0.01,9.28,-0.40,-1.63,-0.54,-1.62,0.22
9826,0.54,-0.19,-0.82,-0.07,10.98,-4.64,-4.07,-1.44,-0.39,-0.50,0.45,-0.13,-0.88,-0.01,9.28,-0.40,-1.63,0.15,-1.58,0.08
9846,0.54,-0.19,-0.82,-0.07,10.98,-4.64,-4.07,-0.91,-0.10,0.20,0.42,-0.13,-0.90,-0.02,9.28,-0.40,-1.63,0.15,-1.58,0.08
9866,0.54,-0.20,-0.82,-0.08,10.98,-4.64,-4.07,-0.91,-0.10,0.20,0.42,-0.13,-0.90,-0.02,9.28,-0.40,-1.63,-0.63,-1.63,0.01
9886,0.54,-0.20,-0.82,-0.08,10.98,-4.64,-4.07,-0.28,0.42,-0.92,0.39,-0.14,-0.91,-0.03,9.28,-0.40,-1.63,-0.63,-1.63,0.01
9906,0.54,-0.19,-0.81,-0.09,10.98,-4.64,-4.07,-0.28,0.42,-0.92,0.39,-0.14,-0.91,-0.03,9.28,-0.40,-1.63,-0.63,-1.49,-0.06
9926,0.54,-0.19,-0.81,-0.09,9.57,0.53,-1.27,-0.28,0.42,-0.92,0.37,-0.13,-0.92,-0.03,9.28,-0.40,-1.63,-0.63,-1.49,-0.06
9946,0.55,-0.18,-0.81,-0.10,9.57,0.53,-1.27,-0.28,0.42,-0.92,0.37,-0.13,-0.92,-0.03,8.70,-1.47,-6.34,-0.63,-1.49,-0.06
9966,0.55,-0.18,-0.81,-0.10,11.18,-4.14,-1.38,-0.28,0.42,-0.92,0.34,-0.12,-0.93,-0.01,8.70,-1.47,-6.34,-0.63,-1.49,-0.06
9986,0.57,-0.16,-0.80,-0.09,11.18,-4.14,-1.38,-0.28,0.42,-0.92,0.34,-0.12,-0.93,-0.01,8.70,-1.47,-6.34,0.79,-1.38,-0.47
10006,0.57,-0.16,-0.80,-0.09,11.90,-2.80,-1.08,-0.28,0.42,-0.92,0.32,-0.11,-0.94,0.00,8.70,-1.47,-6.34,0.79,-1.38,-0.47
10026,0.60,-0.14,-0.79,-0.08,11.90,-2.80,-1.08,-0.28,0.42,-0.92,0.32,-0.11,-0.94,0.00,8.70,-1.47,-6.34,0.88,-1.23,-0.57
10046,0.60,-0.14,-0.79,-0.08,12.32,0.07,-0.89,-0.28,0.42,-0.92,0.30,-0.10,-0.95,0.01,8.70,-1.47,-6.34,0.88,-1.23,-0.57
10066,0.63,-0.12,-0.76,-0.08,12.32,0.07,-0.89,-0.28,0.42,-0.92,0.30,-0.10,-0.95,0.01,8.70,-1.47,-6.34,0.07,-1.02,-0.52
10086,0.63,-0.12,-0.76,-0.08,12.40,0.68,-3.45,-0.28,0.42,-0.92,0.30,-0.09,-0.95,-0.01,8.70,-1.47,-6.34,0.07,-1.02,-0.52
10106,0.66,-0.11,-0.74,-0.08,12.40,0.68,-3.45,-0.28,0.42,-0.92,0.30,-0.09,-0.95,-0.01,8.70,-1.47,-6.34,-0.79,0.31,-0.33
10126,0.66,-0.11,-0.74,-0.08,11.02,-0.77,-3.57,-0.28,0.42,-0.92,0.33,-0.09,-0.94,-0.02,8.70,-1.47,-6.34,-0.79,0.31,-0.33
10146,0.69,-0.10,-0.71,-0.07,11.02,-0.77,-3.57,-0.28,0.42,-0.92,0.33,-0.09,-0.94,-0.02,8.70,-1.47,-6.34,-0.39,1.68,-0.43
10166,0.69,-0.10,-0.71,-0.07,11.02,-0.77,-3.57,0.60,1.93,0.17,0.38,-0.08,-0.92,-0.04,8.70,-1.47,-6.34,-0.39,1.68,-0.43
10186,0.72,-0.09,-0.69,-0.07,11.02,-0.77,-3.57,0.60,1.93,0.17,0.38,-0.08,-0.92,-0.04,8.70,-1.47,-6.34,-0.20,2.59,-0.60
10206,0.72,-0.09,-0.69,-0.07,8.56,-1.80,-3.64,0.60,1.93,0.17,0.44,-0.06,-0.90,-0.04,8.70,-1.47,-6.34,-0.20,2.59,-0.60
10226,0.74,-0.08,-0.66,-0.05,8.56,-1.80,-3.64,0.60,1.93,0.17,0.44,-0.06,-0.90,-0.04,8.70,-1.47,-6.34,0.30,3.52,-0.83
10246,0.74,-0.08,-0.66,-0.05,8.56,-1.80,-3.64,1.03,1.44,0.31,0.51,-0.04,-0.86,-0.05,8.70,-1.47,-6.34,0.30,3.52,-0.83
10266,0.76,-0.06,-0.65,-0.04,8.56,-1.80,-3.64,1.03,1.44,0.31,0.51,-0.04,-0.86,-0.05,8.70,-1.47,-6.34,0.04,4.12,-1.01
10286,0.76,-0.06,-0.65,-0.04,5.46,-0.20,-3.41,1.03,1.44,0.31,0.58,-0.03,-0.81,-0.07,8.70,-1.47,-6.34,0.04,4.12,-1.01
10306,0.77,-0.05,-0.63,-0.02,5.46,-0.20,-3.41,1.03,1.44,0.31,0.58,-0.03,-0.81,-0.07,10.46,-2.32,-6.65,0.04,4.12,-1.01
10326,0.77,-0.05,-0.63,-0.02,6.50,-0.54,-2.19,1.03,1.44,0.31,0.65,-0.02,-0.76,-0.08,10.46,-2.32,-6.65,0.04,4.12,-1.01
10346,0.78,-0.05,-0.63,-0.01,6.50,-0.54,-2.19,1.03,1.44,0.31,0.65,-0.02,-0.76,-0.08,10.46,-2.32,-6.65,0.23,4.71,-0.25
10366,0.78,-0.05,-0.63,-0.01,6.50,-0.54,-2.19,0.44,0.21,0.23,0.71,-0.01,-0.69,-0.08,10.46,-2.32,-6.65,0.23,4.71,-0.25
10386,0.78,-0.04,-0.63,-0.00,6.50,-0.54,-2.19,0.44,0.21,0.23,0.71,-0.01,-0.69,-0.08,12.00,0.82,-6.04,0.23,4.71,-0.25
10406,0.78,-0.04,-0.63,-0.00,7.61,-0.16,1.22,0.44,0.21,0.23,0.76,-0.02,-0.64,-0.09,12.00,0.82,-6.04,0.23,4.71,-0.25
10426,0.78,-0.04,-0.62,0.01,7.61,-0.16,1.22,0.44,0.21,0.23,0.76,-0.02,-0.64,-0.09,12.00,0.82,-6.04,-0.58,3.25,0.22
10446,0.78,-0.04,-0.62,0.01,8.84,-2.11,5.93,0.44,0.21,0.23,0.78,-0.03,-0.62,-0.09,12.00,0.82,-6.04,-0.58,3.25,0.22
10466,0.78,-0.05,-0.62,0.02,8.84,-2.11,5.93,0.44,0.21,0.23,0.78,-0.03,-0.62,-0.09,12.00,0.82,-6.04,-0.41,1.29,0.46
10486,0.78,-0.05,-0.62,0.02,10.87,1.14,6.35,0.44,0.21,0.23,0.77,-0.04,-0.63,-0.08,12.00,0.82,-6.04,-0.41,1.29,0.46
10506,0.79,-0.04,-0.62,0.02,10.87,1.14,6.35,0.44,0.21,0.23,0.77,-0.04,-0.63,-0.08,12.00,0.82,-6.04,-0.35,-0.99,0.59
10526,0.79,-0.04,-0.62,0.02,3.28,-0.62,1.14,0.44,0.21,0.23,0.75,-0.02,-0.65,-0.07,12.00,0.82,-6.04,-0.35,-0.99,0.59
10546,0.78,-0.04,-0.63,0.04,3.28,-0.62,1.14,0.44,0.21,0.23,0.75,-0.02,-0.65,-0.07,12.00,0.82,-6.04,1.69,-1.30,-0.23
10566,0.78,-0.04,-0.63,0.04,14.50,-1.35,-0.50,0.44,0.21,0.23,0.74,0.02,-0.67,-0.03,12.00,0.82,-6.04,1.69,-1.30,-0.23
10586,0.77,-0.01,-0.63,0.05,14.50,-1.35,-0.50,0.44,0.21,0.23,0.74,0.02,-0.67,-0.03,12.00,0.82,-6.04,2.97,-1.04,-0.16
10606,0.77,-0.01,-0.63,0.05,12.89,1.98,2.45,0.44,0.21,0.23,0.72,0.02,-0.69,-0.03,12.00,0.82,-6.04,2.97,-1.04,-0.16
10626,0.75,-0.02,-0.65,0.05,12.89,1.98,2.45,0.44,0.21,0.23,0.72,0.02,-0.69,-0.03,12.00,0.82,-6.04,-0.39,-1.62,0.57
10646,0.75,-0.02,-0.65,0.05,12.89,1.98,2.45,-1.20,-1.71,0.44,0.70,0.03,-0.71,-0.01,12.00,0.82,-6.04,-0.39,-1.62,0.57
10666,0.74,-0.04,-0.67,0.05,12.89,1.98,2.45,-1.20,-1.71,0.44,0.70,0.03,-0.71,-0.01,12.00,0.82,-6.04,1.05,-1.17,0.31
10686,0.74,-0.04,-0.67,0.05,7.15,-3.15,-1.16,-1.20,-1.71,0.44,0.69,0.02,-0.73,-0.01,12.00,0.82,-6.04,1.05,-1.17,0.31
10706,0.72,-0.04,-0.69,0.06,7.15,-3.15,-1.16,-1.20,-1.71,0.44,0.69,0.02,-0.73,-0.01,12.00,0.82,-6.04,-0.12,-1.02,0.46
10726,0.72,-0.04,-0.69,0.06,7.15,-3.15,-1.16,0.11,-0.90,0.17,0.67,0.02,-0.74,0.00,12.00,0.82,-6.04,-0.12,-1.02,0.46
10746,0.71,-0.04,-0.70,0.06,7.15,-3.15,-1.16,0.11,-0.90,0.17,0.67,0.02,-0.74,0.00,9.82,-1.25,-1.48,-0.12,-1.02,0.46
10766,0.71,-0.04,-0.70,0.06,9.11,-1.39,-1.04,0.11,-0.90,0.17,0.66,0.02,-0.75,0.01,9.82,-1.25,-1.48,-0.12,-1.02,0.46
10786,0.69,-0.04,-0.72,0.06,9.11,-1.39,-1.04,0.11,-0.90,0.17,0.66,0.02,-0.75,0.01,9.82,-1.25,-1.48,-0.06,-0.85,0.24
10806,0.69,-0.04,-0.72,0.06,9.29,-0.66,-1.04,0.11,-0.90,0.17,0.65,0.01,-0.76,0.01,9.82,-1.25,-1.48,-0.06,-0.85,0.24
10826,0.67,-0.05,-0.74,0.06,9.29,-0.66,-1.04,0.11,-0.90,0.17,0.65,0.01,-0.76,0.01,9.85,0.52,-1.25,-0.06,-0.85,0.24
10846,0.67,-0.05,-0.74,0.06,9.75,-1.16,-1.50,0.11,-0.90,0.17,0.64,0.00,-0.77,0.00,9.85,0.52,-1.25,-0.06,-0.85,0.24
10866,0.66,-0.06,-0.75,0.05,9.75,-1.16,-1.50,0.11,-0.90,0.17,0.64,0.00,-0.77,0.00,9.85,0.52,-1.25,-0.30,-0.72,0.27
10886,0.66,-0.06,-0.75,0.05,9.14,-2.54,-1.80,0.11,-0.90,0.17,0.63,-0.00,-0.78,0.00,9.85,0.52,-1.25,-0.30,-0.72,0.27
10906,0.64,-0.06,-0.76,0.05,9.14,-2.54,-1.80,0.11,-0.90,0.17,0.63,-0.00,-0.78,0.00,9.85,0.52,-1.25,-0.32,-0.71,0.22
10926,0.64,-0.06,-0.76,0.05,8.98,-2.77,-1.88,0.11,-0.90,0.17,0.62,-0.01,-0.79,0.00,9.85,0.52,-1.25,-0.32,-0.71,0.22
10946,0.63,-0.06,-0.77,0.05,8.98,-2.77,-1.88,0.11,-0.90,0.17,0.62,-0.01,-0.79,0.00,9.85,0.52,-1.25,-0.09,-0.69,0.15
10966,0.63,-0.06,-0.77,0.05,8.61,-2.80,-2.34,0.11,-0.90,0.17,0.61,-0.00,-0.79,0.01,9.85,0.52,-1.25,-0.09,-0.69,0.15
10986,0.61,-0.06,-0.79,0.06,8.61,-2.80,-2.34,0.11,-0.90,0.17,0.61,-0.00,-0.79,0.01,9.85,0.52,-1.25,0.61,-0.68,0.07
11006,0.61,-0.06,-0.79,0.06,9.64,-0.66,-1.61,0.11,-0.90,0.17,0.59,-0.00,-0.80,0.01,9.85,0.52,-1.25,0.61,-0.68,0.07
11026,0.59,-0.06,-0.81,0.05,9.64,-0.66,-1.61,0.11,-0.90,0.17,0.59,-0.00,-0.80,0.01,9.85,0.52,-1.25,0.04,-0.85,0.18
11046,0.59,-0.06,-0.81,0.05,9.03,-1.61,-1.12,0.11,-0.90,0.17,0.58,-0.00,-0.82,0.02,9.85,0.52,-1.25,0.04,-0.85,0.18
11066,0.57,-0.06,-0.82,0.05,9.03,-1.61,-1.12,0.11,-0.90,0.17,0.58,-0.00,-0.82,0.02,9.85,0.52,-1.25,0.43,-0.96,0.19
11086,0.57,-0.06,-0.82,0.05,9.03,-1.61,-1.12,-0.31,-1.06,0.15,0.56,0.00,-0.83,0.03,9.85,0.52,-1.25,0.43,-0.96,0.19
11106,0.56,-0.07,-0.82,0.04,9.03,-1.61,-1.12,-0.31,-1.06,0.15,0.56,0.00,-0.83,0.03,9.20,0.32,-4.20,0.43,-0.96,0.19
11126,0.56,-0.07,-0.82,0.04,9.03,-1.61,-1.12,-0.38,-0.88,0.07,0.54,-0.00,-0.84,0.03,9.20,0.32,-4.20,0.43,-0.96,0.19
11146,0.54,-0.08,-0.84,0.02,9.03,-1.61,-1.12,-0.38,-0.88,0.07,0.54,-0.00,-0.84,0.03,9.20,0.32,-4.20,-0.19,-1.16,0.27
11166,0.54,-0.08,-0.84,0.02,9.03,-1.61,-1.12,-0.81,-0.66,0.12,0.52,-0.01,-0.85,0.03,9.20,0.32,-4.20,-0.19,-1.16,0.27
11186,0.53,-0.09,-0.84,0.02,9.03,-1.61,-1.12,-0.81,-0.66,0.12,0.52,-0.01,-0.85,0.03,9.20,0.32,-4.20,-0.16,-1.32,0.24
11206,0.53,-0.09,-0.84,0.02,9.07,-1.20,-4.18,-0.81,-0.66,0.12,0.50,-0.01,-0.87,0.03,9.20,0.32,-4.20,-0.16,-1.32,0.24
11226,0.52,-0.10,-0.85,-0.00,9.07,-1.20,-4.18,-0.81,-0.66,0.12,0.50,-0.01,-0.87,0.03,9.20,0.32,-4.20,-0.31,-1.32,0.21
11246,0.52,-0.10,-0.85,-0.00,9.07,-1.20,-4.18,-1.04,-0.44,0.01,0.47,-0.02,-0.88,0.02,9.20,0.32,-4.20,-0.31,-1.32,0.21
11266,0.52,-0.11,-0.85,-0.01,9.07,-1.20,-4.18,-1.04,-0.44,0.01,0.47,-0.02,-0.88,0.02,9.20,0.32,-4.20,-0.59,-1.50,0.25
11286,0.52,-0.11,-0.85,-0.01,12.51,0.41,2.10,-1.04,-0.44,0.01,0.44,-0.04,-0.90,0.01,9.20,0.32,-4.20,-0.59,-1.50,0.25
11306,0.53,-0.12,-0.84,-0.05,12.51,0.41,2.10,-1.04,-0.44,0.01,0.44,-0.04,-0.90,0.01,9.20,0.32,-4.20,-1.02,-1.95,0.25
11326,0.53,-0.12,-0.84,-0.05,14.54,0.45,2.87,-1.04,-0.44,0.01,0.39,-0.05,-0.92,-0.01,9.20,0.32,-4.20,-1.02,-1.95,0.25
11346,0.54,-0.12,-0.83,-0.07,14.54,0.45,2.87,-1.04,-0.44,0.01,0.39,-0.05,-0.92,-0.01,9.20,0.32,-4.20,-1.51,-2.27,0.18
11366,0.54,-0.12,-0.83,-0.07,12.71,0.84,-0.73,-1.04,-0.44,0.01,0.35,-0.07,-0.93,-0.04,9.20,0.32,-4.20,-1.51,-2.27,0.18
11386,0.58,-0.11,-0.80,-0.09,12.71,0.84,-0.73,-1.04,-0.44,0.01,0.35,-0.07,-0.93,-0.04,9.20,0.32,-4.20,-1.54,-2.19,0.20
11406,0.58,-0.11,-0.80,-0.09,10.10,-4.53,-4.41,-1.04,-0.44,0.01,0.32,-0.07,-0.95,-0.03,9.20,0.32,-4.20,-1.54,-2.19,0.20
11426,0.59,-0.10,-0.80,-0.09,10.10,-4.53,-4.41,-1.04,-0.44,0.01,0.32,-0.07,-0.95,-0.03,9.20,0.32,-4.20,0.18,-1.81,0.12
11446,0.59,-0.10,-0.80,-0.09,10.48,-1.58,-3.99,-1.04,-0.44,0.01,0.29,-0.07,-0.95,-0.03,9.20,0.32,-4.20,0.18,-1.81,0.12
11466,0.63,-0.09,-0.77,-0.09,10.48,-1.58,-3.99,-1.04,-0.44,0.01,0.29,-0.07,-0.95,-0.03,9.20,0.32,-4.20,-0.18,-1.20,0.14
11486,0.63,-0.09,-0.77,-0.09,10.48,-1.58,-3.99,0.07,1.43,0.19,0.30,-0.08,-0.95,-0.05,9.20,0.32,-4.20,-0.18,-1.20,0.14
11506,0.66,-0.09,-0.74,-0.09,10.48,-1.58,-3.99,0.07,1.43,0.19,0.30,-0.08,-0.95,-0.05,7.20,0.55,-0.18,-0.18,-1.20,0.14
11526,0.66,-0.09,-0.74,-0.09,11.25,-0.43,-3.64,0.07,1.43,0.19,0.32,-0.08,-0.94,-0.06,7.20,0.55,-0.18,-0.18,-1.20,0.14
11546,0.68,-0.09,-0.72,-0.08,11.25,-0.43,-3.64,0.07,1.43,0.19,0.32,-0.08,-0.94,-0.06,7.20,0.55,-0.18,-0.70,1.71,-0.04
11566,0.68,-0.09,-0.72,-0.08,10.60,-0.73,-3.07,0.07,1.43,0.19,0.38,-0.07,-0.92,-0.06,7.20,0.55,-0.18,-0.70,1.71,-0.04
11586,0.71,-0.08,-0.70,-0.06,10.60,-0.73,-3.07,0.07,1.43,0.19,0.38,-0.07,-0.92,-0.06,7.90,-1.02,-3.66,-0.70,1.71,-0.04
11606,0.71,-0.08,-0.70,-0.06,8.95,0.61,-2.69,0.07,1.43,0.19,0.44,-0.06,-0.89,-0.05,7.90,-1.02,-3.66,-0.70,1.71,-0.04
11626,0.74,-0.08,-0.67,-0.05,8.95,0.61,-2.69,0.07,1.43,0.19,0.44,-0.06,-0.89,-0.05,7.90,-1.02,-3.66,0.40,3.68,-0.28
11646,0.74,-0.08,-0.67,-0.05,8.95,0.61,-2.69,0.54,1.69,0.47,0.51,-0.06,-0.86,-0.08,7.90,-1.02,-3.66,0.40,3.68,-0.28
11666,0.76,-0.08,-0.65,-0.04,8.95,0.61,-2.69,0.54,1.69,0.47,0.51,-0.06,-0.86,-0.08,7.90,-1.02,-3.66,-1.03,3.92,-0.04
11686,0.76,-0.08,-0.65,-0.04,7.38,-0.85,-1.92,0.54,1.69,0.47,0.58,-0.05,-0.81,-0.08,7.90,-1.02,-3.66,-1.03,3.92,-0.04
11706,0.77,-0.07,-0.64,-0.03,7.38,-0.85,-1.92,0.54,1.69,0.47,0.58,-0.05,-0.81,-0.08,7.90,-1.02,-3.66,0.23,4.18,-0.12
11726,0.77,-0.07,-0.64,-0.03,7.38,-0.85,-1.92,0.58,0.83,0.35,0.64,-0.04,-0.76,-0.08,7.90,-1.02,-3.66,0.23,4.18,-0.12
11746,0.78,-0.06,-0.63,-0.02,7.38,-0.85,-1.92,0.58,0.83,0.35,0.64,-0.04,-0.76,-0.08,7.90,-1.02,-3.66,0.25,4.24,-0.06
11766,0.78,-0.06,-0.63,-0.02,7.23,-0.27,-0.20,0.58,0.83,0.35,0.70,-0.03,-0.71,-0.08,7.90,-1.02,-3.66,0.25,4.24,-0.06
11786,0.78,-0.06,-0.62,-0.01,7.23,-0.27,-0.20,0.58,0.83,0.35,0.70,-0.03,-0.71,-0.08,7.90,-1.02,-3.66,0.23,4.07,-0.13
11806,0.78,-0.06,-0.62,-0.01,6.38,0.11,-0.00,0.58,0.83,0.35,0.75,-0.03,-0.66,-0.09,7.90,-1.02,-3.66,0.23,4.07,-0.13
11826,0.79,-0.05,-0.62,0.00,6.38,0.11,-0.00,0.58,0.83,0.35,0.75,-0.03,-0.66,-0.09,7.90,-1.02,-3.66,-0.10,3.29,-0.08
11846,0.79,-0.05,-0.62,0.00,8.68,-1.84,4.09,0.58,0.83,0.35,0.77,-0.03,-0.62,-0.10,7.90,-1.02,-3.66,-0.10,3.29,-0.08
11866,0.79,-0.05,-0.61,0.01,8.68,-1.84,4.09,0.58,0.83,0.35,0.77,-0.03,-0.62,-0.10,7.90,-1.02,-3.66,-0.77,1.87,0.12
11886,0.79,-0.05,-0.61,0.01,9.29,-0.66,3.98,0.58,0.83,0.35,0.78,-0.04,-0.62,-0.09,7.90,-1.02,-3.66,-0.77,1.87,0.12
11906,0.79,-0.04,-0.61,0.02,9.29,-0.66,3.98,0.58,0.83,0.35,0.78,-0.04,-0.62,-0.09,7.90,-1.02,-3.66,-0.09,-0.13,0.30
11926,0.79,-0.04,-0.61,0.02,9.68,1.64,5.59,0.58,0.83,0.35,0.76,-0.03,-0.65,-0.08,7.90,-1.02,-3.66,-0.09,-0.13,0.30
11946,0.78,-0.03,-0.62,0.03,9.68,1.64,5.59,0.58,0.83,0.35,0.76,-0.03,-0.65,-0.08,8.51,1.93,-1.37,-0.09,-0.13,0.30
11966,0.78,-0.03,-0.62,0.03,7.95,-0.96,-1.46,0.58,0.83,0.35,0.74,-0.00,-0.66,-0.06,8.51,1.93,-1.37,-0.09,-0.13,0.30
11986,0.78,-0.02,-0.63,0.04,7.95,-0.96,-1.46,0.58,0.83,0.35,0.74,-0.00,-0.66,-0.06,8.51,1.93,-1.37,2.16,-1.05,-0.19
12006,0.78,-0.02,-0.63,0.04,7.95,-0.96,-1.46,1.10,0.10,0.00,0.72,0.01,-0.69,-0.04,8.51,1.93,-1.37,2.16,-1.05,-0.19
12026,0.76,-0.03,-0.64,0.04,7.95,-0.96,-1.46,1.10,0.10,0.00,0.72,0.01,-0.69,-0.04,8.51,1.93,-1.37,0.94,-1.50,0.03
12046,0.76,-0.03,-0.64,0.04,11.98,5.93,0.30,1.10,0.10,0.00,0.70,0.00,-0.71,-0.04,8.51,1.93,-1.37,0.94,-1.50,0.03
12066,0.75,-0.05,-0.66,0.03,11.98,5.93,0.30,1.10,0.10,0.00,0.70,0.00,-0.71,-0.04,8.97,-0.09,-1.29,0.94,-1.50,0.03
12086,0.75,-0.05,-0.66,0.03,11.98,5.93,0.30,-1.25,-0.44,0.27,0.68,0.01,-0.73,-0.02,8.97,-0.09,-1.29,0.94,-1.50,0.03
12106,0.74,-0.07,-0.67,0.03,11.98,5.93,0.30,-1.25,-0.44,0.27,0.68,0.01,-0.73,-0.02,8.97,-0.09,-1.29,0.83,-1.40,0.38
12126,0.74,-0.07,-0.67,0.03,10.75,-2.96,-2.23,-1.25,-0.44,0.27,0.66,-0.01,-0.75,-0.02,8.97,-0.09,-1.29,0.83,-1.40,0.38
12146,0.73,-0.08,-0.68,0.03,10.75,-2.96,-2.23,-1.25,-0.44,0.27,0.66,-0.01,-0.75,-0.02,8.97,-0.09,-1.29,-0.74,-1.38,0.56
12166,0.73,-0.08,-0.68,0.03,10.75,-2.96,-2.23,-0.07,-0.91,-0.13,0.65,-0.00,-0.76,-0.01,8.97,-0.09,-1.29,-0.74,-1.38,0.56
12186,0.71,-0.07,-0.70,0.03,10.75,-2.96,-2.23,-0.07,-0.91,-0.13,0.65,-0.00,-0.76,-0.01,8.97,-0.09,-1.29,1.09,-1.03,0.22
12206,0.71,-0.07,-0.70,0.03,9.22,-2.57,-1.80,-0.07,-0.91,-0.13,0.63,-0.01,-0.78,-0.00,8.97,-0.09,-1.29,1.09,-1.03,0.22
12226,0.70,-0.08,-0.71,0.03,9.22,-2.57,-1.80,-0.07,-0.91,-0.13,0.63,-0.01,-0.78,-0.00,8.97,-0.09,-1.29,-0.20,-0.87,0.28
12246,0.70,-0.08,-0.71,0.03,9.64,-0.62,-2.23,-0.07,-0.91,-0.13,0.62,-0.01,-0.78,-0.00,8.97,-0.09,-1.29,-0.20,-0.87,0.28
12266,0.68,-0.08,-0.73,0.03,9.64,-0.62,-2.23,-0.07,-0.91,-0.13,0.62,-0.01,-0.78,-0.00,9.62,-0.40,-3.01,-0.20,-0.87,0.28
12286,0.68,-0.08,-0.73,0.03,9.52,-2.07,-2.46,-0.07,-0.91,-0.13,0.61,-0.02,-0.79,0.00,9.62,-0.40,-3.01,-0.20,-0.87,0.28
12306,0.66,-0.08,-0.75,0.03,9.52,-2.07,-2.46,-0.07,-0.91,-0.13,0.61,-0.02,-0.79,0.00,9.62,-0.40,-3.01,-0.08,-0.59,0.17
12326,0.66,-0.08,-0.75,0.03,8.88,-3.38,-2.11,-0.07,-0.91,-0.13,0.60,-0.01,-0.80,0.01,9.62,-0.40,-3.01,-0.08,-0.59,0.17
12346,0.64,-0.07,-0.76,0.04,8.88,-3.38,-2.11,-0.07,-0.91,-0.13,0.60,-0.01,-0.80,0.01,9.09,-1.44,-2.09,-0.08,-0.59,0.17
12366,0.64,-0.07,-0.76,0.04,9.95,-2.99,-0.23,-0.07,-0.91,-0.13,0.59,-0.01,-0.80,0.01,9.09,-1.44,-2.09,-0.08,-0.59,0.17
12386,0.62,-0.07,-0.78,0.03,9.95,-2.99,-0.23,-0.07,-0.91,-0.13,0.59,-0.01,-0.80,0.01,9.09,-1.44,-2.09,0.06,-0.64,0.06
12406,0.62,-0.07,-0.78,0.03,10.25,2.71,-0.50,-0.07,-0.91,-0.13,0.58,-0.02,-0.81,0.01,9.09,-1.44,-2.09,0.06,-0.64,0.06
12426,0.60,-0.08,-0.79,0.02,10.25,2.71,-0.50,-0.07,-0.91,-0.13,0.58,-0.02,-0.81,0.01,9.23,-0.59,-1.94,0.06,-0.64,0.06
12446,0.60,-0.08,-0.79,0.02,9.11,-1.69,-0.73,-0.07,-0.91,-0.13,0.57,-0.02,-0.82,0.01,9.23,-0.59,-1.94,0.06,-0.64,0.06
12466,0.58,-0.09,-0.81,0.01,9.11,-1.69,-0.73,-0.07,-0.91,-0.13,0.57,-0.02,-0.82,0.01,9.23,-0.59,-1.94,-0.19,-0.93,0.25
12486,0.58,-0.09,-0.81,0.01,8.98,-1.92,-2.23,-0.07,-0.91,-0.13,0.55,-0.03,-0.83,0.01,9.23,-0.59,-1.94,-0.19,-0.93,0.25
12506,0.57,-0.10,-0.82,0.00,8.98,-1.92,-2.23,-0.07,-0.91,-0.13,0.55,-0.03,-0.83,0.01,9.23,-0.59,-1.94,0.06,-0.98,0.18
12526,0.57,-0.10,-0.82,0.00,8.98,-1.92,-2.23,-0.52,-0.96,0.05,0.53,-0.03,-0.85,0.01,9.23,-0.59,-1.94,0.06,-0.98,0.18
12546,0.55,-0.11,-0.83,-0.01,8.98,-1.92,-2.23,-0.52,-0.96,0.05,0.53,-0.03,-0.85,0.01,9.23,-0.59,-1.94,-0.45,-1.18,0.20
12566,0.55,-0.11,-0.83,-0.01,9.99,1.34,-1.80,-0.52,-0.96,0.05,0.51,-0.04,-0.86,0.00,9.23,-0.59,-1.94,-0.45,-1.18,0.20
12586,0.54,-0.12,-0.83,-0.03,9.99,1.34,-1.80,-0.52,-0.96,0.05,0.51,-0.04,-0.86,0.00,9.23,-0.59,-1.94,-0.49,-1.33,0.16
12606,0.54,-0.12,-0.83,-0.03,10.29,-0.73,-1.08,-0.52,-0.96,0.05,0.48,-0.05,-0.88,-0.00,9.23,-0.59,-1.94,-0.49,-1.33,0.16
12626,0.53,-0.13,-0.83,-0.05,10.29,-0.73,-1.08,-0.52,-0.96,0.05,0.48,-0.05,-0.88,-0.00,9.23,-0.59,-1.94,-0.56,-1.64,0.12
12646,0.53,-0.13,-0.83,-0.05,11.52,-2.23,-1.12,-0.52,-0.96,0.05,0.45,-0.06,-0.89,-0.01,9.23,-0.59,-1.94,-0.56,-1.64,0.12
12666,0.54,-0.14,-0.83,-0.08,11.52,-2.23,-1.12,-0.52,-0.96,0.05,0.45,-0.06,-0.89,-0.01,9.23,-0.59,-1.94,-0.68,-1.80,0.05
12686,0.54,-0.14,-0.83,-0.08,11.52,-2.23,-1.12,-1.13,0.58,-0.36,0.41,-0.07,-0.91,-0.03,9.23,-0.59,-1.94,-0.68,-1.80,0.05
12706,0.55,-0.14,-0.82,-0.10,11.52,-2.23,-1.12,-1.13,0.58,-0.36,0.41,-0.07,-0.91,-0.03,13.72,2.01,-1.75,-0.68,-1.80,0.05
12726,0.55,-0.14,-0.82,-0.10,13.39,0.15,-0.04,-1.13,0.58,-0.36,0.37,-0.08,-0.92,-0.04,13.72,2.01,-1.75,-0.68,-1.80,0.05
12746,0.56,-0.14,-0.81,-0.12,13.39,0.15,-0.04,-1.13,0.58,-0.36,0.37,-0.08,-0.92,-0.04,13.72,2.01,-1.75,-1.04,-1.93,0.10
12766,0.56,-0.14,-0.81,-0.12,11.02,-3.87,-2.61,-1.13,0.58,-0.36,0.34,-0.08,-0.94,-0.04,13.72,2.01,-1.75,-1.04,-1.93,0.10
12786,0.59,-0.13,-0.79,-0.12,11.02,-3.87,-2.61,-1.13,0.58,-0.36,0.34,-0.08,-0.94,-0.04,9.93,-3.39,-5.81,-1.04,-1.93,0.10
12806,0.59,-0.13,-0.79,-0.12,10.25,-2.96,-3.53,-1.13,0.58,-0.36,0.32,-0.08,-0.94,-0.04,9.93,-3.39,-5.81,-1.04,-1.93,0.10
12826,0.61,-0.11,-0.78,-0.11,10.25,-2.96,-3.53,-1.13,0.58,-0.36,0.32,-0.08,-0.94,-0.04,8.09,-1.74,-3.47,-1.04,-1.93,0.10
12846,0.61,-0.11,-0.78,-0.11,10.06,0.61,-2.54,-1.13,0.58,-0.36,0.30,-0.08,-0.95,-0.04,8.09,-1.74,-3.47,-1.04,-1.93,0.10
12866,0.64,-0.11,-0.75,-0.11,10.06,0.61,-2.54,-1.13,0.58,-0.36,0.30,-0.08,-0.95,-0.04,8.09,-1.74,-3.47,-0.49,-0.62,-0.03
12890,0.64,-0.11,-0.75,-0.11,10.06,0.61,-2.54,0.22,1.66,0.19,0.30,-0.09,-0.95,-0.05,8.09,-1.74,-3.47,-0.49,-0.62,-0.03
12906,0.66,-0.11,-0.73,-0.11,10.06,0.61,-2.54,0.22,1.66,0.19,0.30,-0.09,-0.95,-0.05,8.01,-2.82,-3.89,-0.49,-0.62,-0.03
12926,0.66,-0.11,-0.73,-0.11,11.55,1.11,-3.22,0.22,1.66,0.19,0.31,-0.09,-0.94,-0.04,8.01,-2.82,-3.89,-0.49,-0.62,-0.03
12946,0.69,-0.11,-0.71,-0.10,11.55,1.11,-3.22,0.22,1.66,0.19,0.31,-0.09,-0.94,-0.04,8.01,-2.82,-3.89,0.01,1.10,0.26
12966,0.69,-0.11,-0.71,-0.10,11.55,1.11,-3.22,0.09,1.70,0.45,0.35,-0.10,-0.93,-0.05,8.01,-2.82,-3.89,0.01,1.10,0.26
12986,0.71,-0.11,-0.69,-0.09,11.55,1.11,-3.22,0.09,1.70,0.45,0.35,-0.10,-0.93,-0.05,8.01,-2.82,-3.89,0.04,2.11,0.32
13006,0.71,-0.11,-0.69,-0.09,9.49,-0.62,-2.11,0.09,1.70,0.45,0.41,-0.09,-0.91,-0.05,8.01,-2.82,-3.89,0.04,2.11,0.32
13026,0.74,-0.11,-0.66,-0.08,9.49,-0.62,-2.11,0.09,1.70,0.45,0.41,-0.09,-0.91,-0.05,8.01,-2.82,-3.89,0.24,3.04,-0.01
13046,0.74,-0.11,-0.66,-0.08,9.14,-1.35,-2.65,0.09,1.70,0.45,0.47,-0.08,-0.88,-0.06,8.01,-2.82,-3.89,0.24,3.04,-0.01
13066,0.76,-0.10,-0.64,-0.06,9.14,-1.35,-2.65,0.09,1.70,0.45,0.47,-0.08,-0.88,-0.06,8.01,-2.82,-3.89,0.01,3.71,-0.39
13086,0.76,-0.10,-0.64,-0.06,7.03,-1.04,-2.80,0.09,1.70,0.45,0.54,-0.06,-0.84,-0.06,8.01,-2.82,-3.89,0.01,3.71,-0.39
13106,0.77,-0.09,-0.63,-0.04,7.03,-1.04,-2.80,0.09,1.70,0.45,0.54,-0.06,-0.84,-0.06,9.27,0.90,-5.70,0.01,3.71,-0.39
13126,0.77,-0.09,-0.63,-0.04,7.03,-1.04,-2.80,1.21,0.82,0.33,0.61,-0.05,-0.79,-0.07,9.27,0.90,-5.70,0.01,3.71,-0.39
13146,0.78,-0.07,-0.63,-0.03,7.03,-1.04,-2.80,1.21,0.82,0.33,0.61,-0.05,-0.79,-0.07,9.27,0.90,-5.70,-0.41,4.47,-0.50
13166,0.78,-0.07,-0.63,-0.03,6.19,0.45,-1.80,1.21,0.82,0.33,0.68,-0.04,-0.73,-0.09,9.27,0.90,-5.70,-0.41,4.47,-0.50
13186,0.78,-0.06,-0.63,-0.01,6.19,0.45,-1.80,1.21,0.82,0.33,0.68,-0.04,-0.73,-0.09,9.27,0.90,-5.70,-0.44,4.61,-0.35
13206,0.78,-0.06,-0.63,-0.01,5.50,1.11,-1.38,1.21,0.82,0.33,0.74,-0.03,-0.67,-0.10,9.27,0.90,-5.70,-0.44,4.61,-0.35
13226,0.78,-0.05,-0.63,-0.00,5.50,1.11,-1.38,1.21,0.82,0.33,0.74,-0.03,-0.67,-0.10,9.27,0.90,-5.70,-0.23,4.32,-0.14
13246,0.78,-0.05,-0.63,-0.00,10.03,-0.43,3.86,1.21,0.82,0.33,0.78,-0.03,-0.62,-0.10,9.27,0.90,-5.70,-0.23,4.32,-0.14
13266,0.78,-0.05,-0.62,0.01,10.03,-0.43,3.86,1.21,0.82,0.33,0.78,-0.03,-0.62,-0.10,9.01,-0.13,-7.15,-0.23,4.32,-0.14
13286,0.78,-0.05,-0.62,0.01,10.45,1.22,7.81,1.21,0.82,0.33,0.79,-0.03,-0.60,-0.10,9.01,-0.13,-7.15,-0.23,4.32,-0.14
13306,0.78,-0.04,-0.62,0.02,10.45,1.22,7.81,1.21,0.82,0.33,0.79,-0.03,-0.60,-0.10,9.01,-0.13,-7.15,0.35,0.55,0.27
13326,0.78,-0.04,-0.62,0.02,10.45,1.22,7.81,0.63,-0.11,-0.04,0.77,-0.03,-0.63,-0.09,9.01,-0.13,-7.15,0.35,0.55,0.27
13346,0.78,-0.03,-0.62,0.03,10.45,1.22,7.81,0.63,-0.11,-0.04,0.77,-0.03,-0.63,-0.09,9.01,-0.13,-7.15,0.39,-1.96,0.41
13366,0.78,-0.03,-0.62,0.03,3.62,-0.08,-2.15,0.63,-0.11,-0.04,0.76,-0.00,-0.65,-0.07,9.01,-0.13,-7.15,0.39,-1.96,0.41
13386,0.77,-0.01,-0.63,0.04,3.62,-0.08,-2.15,0.63,-0.11,-0.04,0.76,-0.00,-0.65,-0.07,9.01,-0.13,-7.15,1.97,-1.14,-0.08
13406,0.77,-0.01,-0.63,0.04,3.62,-0.08,-2.15,0.81,-0.38,-0.23,0.74,0.05,-0.67,-0.02,9.01,-0.13,-7.15,1.97,-1.14,-0.08
13426,0.76,0.00,-0.65,0.06,3.62,-0.08,-2.15,0.81,-0.38,-0.23,0.74,0.05,-0.67,-0.02,9.01,-0.13,-7.15,4.65,-1.14,-0.32
13446,0.76,0.00,-0.65,0.06,14.20,-0.85,0.15,0.81,-0.38,-0.23,0.72,0.06,-0.69,-0.01,9.01,-0.13,-7.15,4.65,-1.14,-0.32
13466,0.74,-0.00,-0.67,0.06,14.20,-0.85,0.15,0.81,-0.38,-0.23,0.72,0.06,-0.69,-0.01,9.01,-0.13,-7.15,0.26,-1.56,0.58
13486,0.74,-0.00,-0.67,0.06,14.20,-0.85,0.15,-0.31,-1.11,0.12,0.70,0.06,-0.71,0.01,9.01,-0.13,-7.15,0.26,-1.56,0.58
13506,0.72,-0.01,-0.69,0.07,14.20,-0.85,0.15,-0.31,-1.11,0.12,0.70,0.06,-0.71,0.01,9.36,0.06,-3.05,0.26,-1.56,0.58
13526,0.72,-0.01,-0.69,0.07,8.11,2.25,-2.19,-0.31,-1.11,0.12,0.68,0.05,-0.73,0.01,9.36,0.06,-3.05,0.26,-1.56,0.58
13546,0.71,-0.02,-0.70,0.06,8.11,2.25,-2.19,-0.31,-1.11,0.12,0.68,0.05,-0.73,0.01,9.36,0.06,-3.05,-0.62,-1.15,0.55
13566,0.71,-0.02,-0.70,0.06,8.11,2.25,-2.19,-0.47,-0.87,0.32,0.67,0.05,-0.74,0.01,9.36,0.06,-3.05,-0.62,-1.15,0.55
13586,0.69,-0.02,-0.72,0.07,8.11,2.25,-2.19,-0.47,-0.87,0.32,0.67,0.05,-0.74,0.01,9.77,-2.20,-1.18,-0.62,-1.15,0.55
13606,0.69,-0.02,-0.72,0.07,9.14,-3.07,-0.77,-0.47,-0.87,0.32,0.65,0.04,-0.76,0.02,9.77,-2.20,-1.18,-0.62,-1.15,0.55
13626,0.67,-0.02,-0.73,0.07,9.14,-3.07,-0.77,-0.47,-0.87,0.32,0.65,0.04,-0.76,0.02,9.77,-2.20,-1.18,-0.03,-0.94,0.29
13646,0.67,-0.02,-0.73,0.07,9.03,-0.96,-1.42,-0.47,-0.87,0.32,0.64,0.04,-0.77,0.02,9.77,-2.20,-1.18,-0.03,-0.94,0.29
13666,0.66,-0.02,-0.75,0.07,9.03,-0.96,-1.42,-0.47,-0.87,0.32,0.64,0.04,-0.77,0.02,9.24,-0.63,-1.86,-0.03,-0.94,0.29
13686,0.66,-0.02,-0.75,0.07,9.37,-3.03,-1.69,-0.47,-0.87,0.32,0.63,0.05,-0.78,0.03,9.24,-0.63,-1.86,-0.03,-0.94,0.29
13706,0.64,-0.02,-0.77,0.07,9.37,-3.03,-1.69,-0.47,-0.87,0.32,0.63,0.05,-0.78,0.03,9.24,-0.63,-1.86,0.54,-0.79,0.16
13726,0.64,-0.02,-0.77,0.07,9.33,-1.54,-2.54,-0.47,-0.87,0.32,0.62,0.05,-0.79,0.04,9.24,-0.63,-1.86,0.54,-0.79,0.16
13746,0.62,-0.02,-0.78,0.07,9.33,-1.54,-2.54,-0.47,-0.87,0.32,0.62,0.05,-0.79,0.04,9.24,-0.63,-1.86,0.23,-0.79,0.16
13766,0.62,-0.02,-0.78,0.07,8.88,-0.50,-2.23,-0.47,-0.87,0.32,0.60,0.05,-0.80,0.04,9.24,-0.63,-1.86,0.23,-0.79,0.16
13786,0.60,-0.02,-0.80,0.07,8.88,-0.50,-2.23,-0.47,-0.87,0.32,0.60,0.05,-0.80,0.04,9.24,-0.63,-1.86,0.26,-0.79,0.19
13806,0.60,-0.02,-0.80,0.07,8.88,-0.50,-2.23,-0.34,-1.35,0.07,0.59,0.04,-0.81,0.04,9.24,-0.63,-1.86,0.26,-0.79,0.19
13826,0.58,-0.03,-0.81,0.05,8.88,-0.50,-2.23,-0.34,-1.35,0.07,0.59,0.04,-0.81,0.04,9.24,-0.63,-1.86,-0.10,-0.81,0.27
13846,0.58,-0.03,-0.81,0.05,9.37,-0.73,-2.65,-0.34,-1.35,0.07,0.58,0.03,-0.82,0.04,9.24,-0.63,-1.86,-0.10,-0.81,0.27
13866,0.56,-0.04,-0.83,0.04,9.37,-0.73,-2.65,-0.34,-1.35,0.07,0.58,0.03,-0.82,0.04,9.24,-0.63,-1.86,-0.39,-0.84,0.34
13886,0.56,-0.04,-0.83,0.04,9.37,-0.73,-2.65,-0.78,-1.22,-0.06,0.56,0.02,-0.83,0.03,9.24,-0.63,-1.86,-0.39,-0.84,0.34
13906,0.54,-0.05,-0.84,0.03,9.37,-0.73,-2.65,-0.78,-1.22,-0.06,0.56,0.02,-0.83,0.03,9.43,-0.71,-3.09,-0.39,-0.84,0.34
13926,0.54,-0.05,-0.84,0.03,9.37,-0.73,-2.65,-0.73,-1.26,0.05,0.54,0.01,-0.84,0.03,9.43,-0.71,-3.09,-0.39,-0.84,0.34
13946,0.52,-0.06,-0.85,0.02,9.37,-0.73,-2.65,-0.73,-1.26,0.05,0.54,0.01,-0.84,0.03,9.43,-0.71,-3.09,-0.64,-1.06,0.25
13966,0.52,-0.06,-0.85,0.02,9.37,-0.73,-2.65,-0.86,-0.85,0.11,0.52,0.00,-0.85,0.02,9.43,-0.71,-3.09,-0.64,-1.06,0.25
13986,0.51,-0.07,-0.85,0.00,9.37,-0.73,-2.65,-0.86,-0.85,0.11,0.52,0.00,-0.85,0.02,10.46,0.94,-1.94,-0.64,-1.06,0.25
14006,0.51,-0.07,-0.85,0.00,11.52,-0.96,-0.23,-0.86,-0.85,0.11,0.49,-0.00,-0.87,0.01,10.46,0.94,-1.94,-0.64,-1.06,0.25
14026,0.52,-0.08,-0.85,-0.02,11.52,-0.96,-0.23,-0.86,-0.85,0.11,0.49,-0.00,-0.87,0.01,10.93,0.52,-3.28,-0.64,-1.06,0.25
14046,0.52,-0.08,-0.85,-0.02,11.52,-0.96,-0.23,-1.16,0.23,-0.21,0.46,-0.01,-0.89,-0.00,10.93,0.52,-3.28,-0.64,-1.06,0.25
14066,0.53,-0.08,-0.84,-0.05,11.52,-0.96,-0.23,-1.16,0.23,-0.21,0.46,-0.01,-0.89,-0.00,10.93,0.52,-3.28,-0.66,-1.89,-0.02
14086,0.53,-0.08,-0.84,-0.05,12.13,1.26,1.03,-1.16,0.23,-0.21,0.42,-0.02,-0.91,-0.02,10.93,0.52,-3.28,-0.66,-1.89,-0.02
14106,0.55,-0.09,-0.83,-0.08,12.13,1.26,1.03,-1.16,0.23,-0.21,0.42,-0.02,-0.91,-0.02,14.10,3.12,-0.71,-0.66,-1.89,-0.02
14126,0.55,-0.09,-0.83,-0.08,12.89,0.11,1.11,-1.16,0.23,-0.21,0.37,-0.04,-0.93,-0.04,14.10,3.12,-0.71,-0.66,-1.89,-0.02
14146,0.58,-0.09,-0.81,-0.10,12.89,0.11,1.11,-1.16,0.23,-0.21,0.37,-0.04,-0.93,-0.04,14.10,3.12,-0.71,-1.21,-2.43,0.30
14166,0.58,-0.09,-0.81,-0.10,11.25,-1.08,-2.96,-1.16,0.23,-0.21,0.34,-0.05,-0.94,-0.05,14.10,3.12,-0.71,-1.21,-2.43,0.30
14186,0.60,-0.08,-0.79,-0.10,11.25,-1.08,-2.96,-1.16,0.23,-0.21,0.34,-0.05,-0.94,-0.05,14.10,3.12,-0.71,-0.93,-1.83,0.51
14206,0.60,-0.08,-0.79,-0.10,10.37,-2.23,-5.87,-1.16,0.23,-0.21,0.31,-0.07,-0.95,-0.06,14.10,3.12,-0.71,-0.93,-1.83,0.51
14226,0.63,-0.08,-0.77,-0.10,10.37,-2.23,-5.87,-1.16,0.23,-0.21,0.31,-0.07,-0.95,-0.06,14.10,3.12,-0.71,-0.68,-1.30,0.50
14246,0.63,-0.08,-0.77,-0.10,10.37,-2.23,-5.87,0.06,1.46,0.19,0.31,-0.08,-0.95,-0.07,14.10,3.12,-0.71,-0.68,-1.30,0.50
14266,0.65,-0.08,-0.75,-0.09,10.37,-2.23,-5.87,0.06,1.46,0.19,0.31,-0.08,-0.95,-0.07,14.10,3.12,-0.71,-0.48,-0.12,0.25
14286,0.65,-0.08,-0.75,-0.09,10.83,-1.04,-4.22,0.06,1.46,0.19,0.33,-0.07,-0.94,-0.06,14.10,3.12,-0.71,-0.48,-0.12,0.25
14306,0.68,-0.08,-0.72,-0.08,10.83,-1.04,-4.22,0.06,1.46,0.19,0.33,-0.07,-0.94,-0.06,6.06,0.32,-3.36,-0.48,-0.12,0.25
14326,0.68,-0.08,-0.72,-0.08,9.68,0.84,-3.03,0.06,1.46,0.19,0.37,-0.07,-0.93,-0.05,6.06,0.32,-3.36,-0.48,-0.12,0.25
14346,0.70,-0.08,-0.70,-0.08,9.68,0.84,-3.03,0.06,1.46,0.19,0.37,-0.07,-0.93,-0.05,6.06,0.32,-3.36,0.48,2.06,0.18
14366,0.70,-0.08,-0.70,-0.08,9.71,0.22,-2.04,0.06,1.46,0.19,0.41,-0.07,-0.91,-0.06,6.06,0.32,-3.36,0.48,2.06,0.18
14386,0.73,-0.08,-0.68,-0.06,9.71,0.22,-2.04,0.06,1.46,0.19,0.41,-0.07,-0.91,-0.06,8.13,1.67,-3.13,0.48,2.06,0.18
14406,0.73,-0.08,-0.68,-0.06,8.45,-0.66,-2.42,0.06,1.46,0.19,0.47,-0.07,-0.88,-0.07,8.13,1.67,-3.13,0.48,2.06,0.18
14426,0.74,-0.08,-0.66,-0.04,8.45,-0.66,-2.42,0.06,1.46,0.19,0.47,-0.07,-0.88,-0.07,8.13,1.67,-3.13,-0.09,3.47,-0.03
14446,0.74,-0.08,-0.66,-0.04,8.45,-0.66,-2.42,0.81,1.26,0.71,0.54,-0.05,-0.84,-0.06,8.13,1.67,-3.13,-0.09,3.47,-0.03
14466,0.75,-0.07,-0.65,-0.02,8.45,-0.66,-2.42,0.81,1.26,0.71,0.54,-0.05,-0.84,-0.06,10.08,0.32,-5.39,-0.09,3.47,-0.03
14486,0.75,-0.07,-0.65,-0.02,8.45,-0.66,-2.42,1.11,0.51,0.54,0.61,-0.04,-0.79,-0.06,10.08,0.32,-5.39,-0.09,3.47,-0.03
14506,0.76,-0.06,-0.65,-0.00,8.45,-0.66,-2.42,1.11,0.51,0.54,0.61,-0.04,-0.79,-0.06,10.08,0.32,-5.39,0.59,4.47,-0.26
14526,0.76,-0.06,-0.65,-0.00,7.11,0.84,-1.73,1.11,0.51,0.54,0.68,-0.03,-0.73,-0.07,10.08,0.32,-5.39,0.59,4.47,-0.26
14546,0.77,-0.05,-0.64,0.01,7.11,0.84,-1.73,1.11,0.51,0.54,0.68,-0.03,-0.73,-0.07,12.04,1.21,-5.70,0.59,4.47,-0.26
14566,0.77,-0.05,-0.64,0.01,7.61,0.11,0.03,1.11,0.51,0.54,0.74,-0.04,-0.67,-0.08,12.04,1.21,-5.70,0.59,4.47,-0.26
14586,0.77,-0.04,-0.64,0.03,7.61,0.11,0.03,1.11,0.51,0.54,0.74,-0.04,-0.67,-0.08,12.04,1.21,-5.70,-0.60,3.82,0.12
14606,0.77,-0.04,-0.64,0.03,7.76,0.34,2.10,1.11,0.51,0.54,0.77,-0.05,-0.63,-0.08,12.04,1.21,-5.70,-0.60,3.82,0.12
14626,0.77,-0.04,-0.64,0.04,7.76,0.34,2.10,1.11,0.51,0.54,0.77,-0.05,-0.63,-0.08,10.24,0.40,-8.14,-0.60,3.82,0.12
14646,0.77,-0.04,-0.64,0.04,10.59,0.80,6.51,1.11,0.51,0.54,0.78,-0.04,-0.63,-0.07,10.24,0.40,-8.14,-0.60,3.82,0.12
14666,0.76,-0.04,-0.64,0.04,10.59,0.80,6.51,1.11,0.51,0.54,0.78,-0.04,-0.63,-0.07,10.24,0.40,-8.14,0.52,0.03,0.40
14686,0.76,-0.04,-0.64,0.04,9.14,1.18,4.29,1.11,0.51,0.54,0.76,-0.03,-0.65,-0.05,10.24,0.40,-8.14,0.52,0.03,0.40
14706,0.75,-0.03,-0.66,0.06,9.14,1.18,4.29,1.11,0.51,0.54,0.76,-0.03,-0.65,-0.05,8.43,2.36,-0.33,0.52,0.03,0.40
14726,0.75,-0.03,-0.66,0.06,5.50,-1.73,-2.84,1.11,0.51,0.54,0.74,0.03,-0.67,-0.01,8.43,2.36,-0.33,0.52,0.03,0.40
14746,0.75,0.01,-0.66,0.09,5.50,-1.73,-2.84,1.11,0.51,0.54,0.74,0.03,-0.67,-0.01,8.43,2.36,-0.33,4.02,-1.13,-0.30
14766,0.75,0.01,-0.66,0.09,5.50,-1.73,-2.84,2.38,0.23,-0.19,0.72,0.05,-0.69,0.02,8.43,2.36,-0.33,4.02,-1.13,-0.30
14786,0.72,0.01,-0.69,0.09,5.50,-1.73,-2.84,2.38,0.23,-0.19,0.72,0.05,-0.69,0.02,13.18,1.09,-2.13,4.02,-1.13,-0.30
14806,0.72,0.01,-0.69,0.09,5.35,7.04,-1.77,2.38,0.23,-0.19,0.69,0.05,-0.72,0.03,13.18,1.09,-2.13,4.02,-1.13,-0.30
14826,0.72,-0.01,-0.69,0.08,5.35,7.04,-1.77,2.38,0.23,-0.19,0.69,0.05,-0.72,0.03,13.18,1.09,-2.13,0.19,-1.72,0.46
14846,0.72,-0.01,-0.69,0.08,5.35,7.04,-1.77,-1.15,0.21,0.72,0.67,0.05,-0.74,0.03,13.18,1.09,-2.13,0.19,-1.72,0.46
14866,0.71,-0.02,-0.70,0.09,5.35,7.04,-1.77,-1.15,0.21,0.72,0.67,0.05,-0.74,0.03,10.46,-0.48,-4.01,0.19,-1.72,0.46
14886,0.71,-0.02,-0.70,0.09,11.86,-4.95,-3.64,-1.15,0.21,0.72,0.66,0.04,-0.75,0.04,10.46,-0.48,-4.01,0.19,-1.72,0.46
14906,0.69,-0.01,-0.72,0.09,11.86,-4.95,-3.64,-1.15,0.21,0.72,0.66,0.04,-0.75,0.04,10.46,-0.48,-4.01,0.35,-1.12,0.34
14926,0.69,-0.01,-0.72,0.09,11.86,-4.95,-3.64,0.62,-1.22,-0.10,0.64,0.05,-0.76,0.05,10.46,-0.48,-4.01,0.35,-1.12,0.34
14946,0.68,-0.01,-0.73,0.10,11.86,-4.95,-3.64,0.62,-1.22,-0.10,0.64,0.05,-0.76,0.05,9.70,-0.55,-2.71,0.35,-1.12,0.34
14966,0.68,-0.01,-0.73,0.10,9.45,-1.58,-2.61,0.62,-1.22,-0.10,0.63,0.05,-0.77,0.05,9.70,-0.55,-2.71,0.35,-1.12,0.34
14986,0.66,-0.01,-0.75,0.09,9.45,-1.58,-2.61,0.62,-1.22,-0.10,0.63,0.05,-0.77,0.05,9.70,-0.55,-2.71,0.02,-0.74,0.19
15006,0.66,-0.01,-0.75,0.09,9.29,1.18,-1.88,0.62,-1.22,-0.10,0.62,0.04,-0.78,0.05,9.70,-0.55,-2.71,0.02,-0.74,0.19
15026,0.64,-0.02,-0.76,0.09,9.29,1.18,-1.88,0.62,-1.22,-0.10,0.62,0.04,-0.78,0.05,9.62,0.32,-2.25,0.02,-0.74,0.19
15046,0.64,-0.02,-0.76,0.09,9.22,-2.80,-2.34,0.62,-1.22,-0.10,0.61,0.03,-0.79,0.05,9.62,0.32,-2.25,0.02,-0.74,0.19
15066,0.62,-0.03,-0.78,0.08,9.22,-2.80,-2.34,0.62,-1.22,-0.10,0.61,0.03,-0.79,0.05,9.16,-1.36,-2.29,0.02,-0.74,0.19
15086,0.62,-0.03,-0.78,0.08,9.02,-2.19,-2.19,0.62,-1.22,-0.10,0.60,0.03,-0.80,0.05,9.16,-1.36,-2.29,0.02,-0.74,0.19
15106,0.61,-0.03,-0.79,0.08,9.02,-2.19,-2.19,0.62,-1.22,-0.10,0.60,0.03,-0.80,0.05,9.62,-0.40,-2.17,0.02,-0.74,0.19
15126,0.61,-0.03,-0.79,0.08,9.45,-0.93,-1.42,0.62,-1.22,-0.10,0.59,0.02,-0.81,0.05,9.62,-0.40,-2.17,0.02,-0.74,0.19
15146,0.59,-0.04,-0.80,0.07,9.45,-0.93,-1.42,0.62,-1.22,-0.10,0.59,0.02,-0.81,0.05,9.39,-0.52,-2.21,0.02,-0.74,0.19
15166,0.59,-0.04,-0.80,0.07,8.91,-1.39,-1.80,0.62,-1.22,-0.10,0.57,0.02,-0.82,0.05,9.39,-0.52,-2.21,0.02,-0.74,0.19
15186,0.57,-0.04,-0.82,0.05,8.91,-1.39,-1.80,0.62,-1.22,-0.10,0.57,0.02,-0.82,0.05,8.82,-0.63,-2.78,0.02,-0.74,0.19
15206,0.57,-0.04,-0.82,0.05,8.91,-1.39,-1.80,-0.73,-1.05,-0.28,0.56,0.01,-0.83,0.04,8.82,-0.63,-2.78,0.02,-0.74,0.19
15226,0.55,-0.05,-0.83,0.05,8.91,-1.39,-1.80,-0.73,-1.05,-0.28,0.56,0.01,-0.83,0.04,8.82,-0.63,-2.78,-0.25,-0.94,0.19
15246,0.55,-0.05,-0.83,0.05,9.37,-1.46,-2.04,-0.73,-1.05,-0.28,0.54,0.01,-0.84,0.04,8.82,-0.63,-2.78,-0.25,-0.94,0.19
15266,0.54,-0.06,-0.84,0.03,9.37,-1.46,-2.04,-0.73,-1.05,-0.28,0.54,0.01,-0.84,0.04,9.27,-0.55,-3.13,-0.25,-0.94,0.19
15286,0.54,-0.06,-0.84,0.03,9.37,-1.46,-2.04,-0.88,-0.91,0.08,0.52,0.00,-0.85,0.04,9.27,-0.55,-3.13,-0.25,-0.94,0.19
15306,0.53,-0.07,-0.85,0.02,9.37,-1.46,-2.04,-0.88,-0.91,0.08,0.52,0.00,-0.85,0.04,9.27,-0.55,-3.13,-0.39,-1.26,0.20
15326,0.53,-0.07,-0.85,0.02,10.09,-1.04,-1.73,-0.88,-0.91,0.08,0.49,-0.00,-0.87,0.03,9.27,-0.55,-3.13,-0.39,-1.26,0.20
15346,0.52,-0.09,-0.85,-0.00,10.09,-1.04,-1.73,-0.88,-0.91,0.08,0.49,-0.00,-0.87,0.03,10.12,-0.71,-3.47,-0.39,-1.26,0.20
15366,0.52,-0.09,-0.85,-0.00,10.09,-1.04,-1.73,-1.22,-0.09,0.01,0.46,-0.01,-0.89,0.03,10.12,-0.71,-3.47,-0.39,-1.26,0.20
15386,0.53,-0.10,-0.84,-0.03,10.09,-1.04,-1.73,-1.22,-0.09,0.01,0.46,-0.01,-0.89,0.03,10.12,-0.71,-3.47,-0.39,-1.79,0.25
15406,0.53,-0.10,-0.84,-0.03,12.75,-0.66,-0.04,-1.22,-0.09,0.01,0.42,-0.02,-0.91,0.01,10.12,-0.71,-3.47,-0.39,-1.79,0.25
15426,0.54,-0.11,-0.83,-0.05,12.75,-0.66,-0.04,-1.22,-0.09,0.01,0.42,-0.02,-0.91,0.01,13.18,1.63,-3.09,-0.39,-1.79,0.25
15446,0.54,-0.11,-0.83,-0.05,12.75,-0.66,-0.04,-1.54,0.86,-0.28,0.38,-0.04,-0.92,-0.01,13.18,1.63,-3.09,-0.39,-1.79,0.25
15466,0.56,-0.11,-0.82,-0.08,12.75,-0.66,-0.04,-1.54,0.86,-0.28,0.38,-0.04,-0.92,-0.01,15.79,4.66,-1.02,-0.39,-1.79,0.25
15486,0.56,-0.11,-0.82,-0.08,14.82,-1.46,-0.00,-1.54,0.86,-0.28,0.34,-0.06,-0.94,-0.03,15.79,4.66,-1.02,-0.39,-1.79,0.25
15506,0.58,-0.10,-0.80,-0.09,14.82,-1.46,-0.00,-1.54,0.86,-0.28,0.34,-0.06,-0.94,-0.03,10.73,-2.16,-4.93,-0.39,-1.79,0.25
15526,0.58,-0.10,-0.80,-0.09,9.95,-3.07,-4.41,-1.54,0.86,-0.28,0.31,-0.06,-0.95,-0.03,10.73,-2.16,-4.93,-0.39,-1.79,0.25
15546,0.61,-0.09,-0.78,-0.08,9.95,-3.07,-4.41,-1.54,0.86,-0.28,0.31,-0.06,-0.95,-0.03,8.36,-2.24,-4.85,-0.39,-1.79,0.25
15566,0.61,-0.09,-0.78,-0.08,12.24,-2.46,-5.56,-1.54,0.86,-0.28,0.29,-0.06,-0.95,-0.03,8.36,-2.24,-4.85,-0.39,-1.79,0.25
15586,0.64,-0.08,-0.76,-0.08,12.24,-2.46,-5.56,-1.54,0.86,-0.28,0.29,-0.06,-0.95,-0.03,8.36,-2.24,-4.85,0.13,-0.69,-0.12
15606,0.64,-0.08,-0.76,-0.08,10.37,-0.46,-4.26,-1.54,0.86,-0.28,0.29,-0.06,-0.95,-0.04,8.36,-2.24,-4.85,0.13,-0.69,-0.12
15626,0.67,-0.08,-0.73,-0.08,10.37,-0.46,-4.26,-1.54,0.86,-0.28,0.29,-0.06,-0.95,-0.04,6.75,-1.28,-0.71,0.13,-0.69,-0.12
15646,0.67,-0.08,-0.73,-0.08,10.37,-0.46,-4.26,0.15,1.89,0.40,0.32,-0.06,-0.95,-0.03,6.75,-1.28,-0.71,0.13,-0.69,-0.12
15666,0.70,-0.08,-0.71,-0.07,10.37,-0.46,-4.26,0.15,1.89,0.40,0.32,-0.06,-0.95,-0.03,6.75,-1.28,-0.71,0.38,1.62,-0.04
15686,0.70,-0.08,-0.71,-0.07,9.87,0.30,-3.45,0.15,1.89,0.40,0.37,-0.05,-0.93,-0.03,6.75,-1.28,-0.71,0.38,1.62,-0.04
15706,0.72,-0.08,-0.68,-0.06,9.87,0.30,-3.45,0.15,1.89,0.40,0.37,-0.05,-0.93,-0.03,6.37,-0.94,-4.16,0.38,1.62,-0.04
15726,0.72,-0.08,-0.68,-0.06,9.06,1.03,-2.99,0.15,1.89,0.40,0.43,-0.05,-0.90,-0.03,6.37,-0.94,-4.16,0.38,1.62,-0.04
15746,0.75,-0.08,-0.66,-0.04,9.06,1.03,-2.99,0.15,1.89,0.40,0.43,-0.05,-0.90,-0.03,6.37,-0.94,-4.16,0.33,3.46,-0.18
15766,0.75,-0.08,-0.66,-0.04,7.88,-0.35,-2.99,0.15,1.89,0.40,0.50,-0.04,-0.87,-0.04,6.37,-0.94,-4.16,0.33,3.46,-0.18
15786,0.76,-0.08,-0.64,-0.03,7.88,-0.35,-2.99,0.15,1.89,0.40,0.50,-0.04,-0.87,-0.04,9.05,1.25,-4.32,0.33,3.46,-0.18
15806,0.76,-0.08,-0.64,-0.03,7.88,-0.35,-2.99,0.51,1.37,0.52,0.57,-0.04,-0.82,-0.06,9.05,1.25,-4.32,0.33,3.46,-0.18
15826,0.77,-0.07,-0.63,-0.02,7.88,-0.35,-2.99,0.51,1.37,0.52,0.57,-0.04,-0.82,-0.06,9.05,1.25,-4.32,-0.85,4.12,-0.09
15846,0.77,-0.07,-0.63,-0.02,6.04,-0.31,-1.57,0.51,1.37,0.52,0.63,-0.04,-0.77,-0.07,9.05,1.25,-4.32,-0.85,4.12,-0.09
15866,0.78,-0.07,-0.63,-0.00,6.04,-0.31,-1.57,0.51,1.37,0.52,0.63,-0.04,-0.77,-0.07,10.24,0.32,-6.69,-0.85,4.12,-0.09
15886,0.78,-0.07,-0.63,-0.00,6.04,-0.31,-1.57,0.75,0.18,0.33,0.70,-0.02,-0.71,-0.07,10.24,0.32,-6.69,-0.85,4.12,-0.09
15906,0.78,-0.05,-0.63,0.01,6.04,-0.31,-1.57,0.75,0.18,0.33,0.70,-0.02,-0.71,-0.07,10.81,1.05,-5.58,-0.85,4.12,-0.09
15926,0.78,-0.05,-0.63,0.01,6.12,-0.89,-0.77,0.75,0.18,0.33,0.75,-0.00,-0.66,-0.07,10.81,1.05,-5.58,-0.85,4.12,-0.09
15946,0.78,-0.04,-0.62,0.02,6.12,-0.89,-0.77,0.75,0.18,0.33,0.75,-0.00,-0.66,-0.07,10.81,1.05,-5.58,1.01,3.79,-0.52
15966,0.78,-0.04,-0.62,0.02,6.12,-0.89,-0.77,1.05,0.28,0.09,0.78,0.00,-0.62,-0.07,10.81,1.05,-5.58,1.01,3.79,-0.52
15986,0.78,-0.03,-0.62,0.03,6.12,-0.89,-0.77,1.05,0.28,0.09,0.78,0.00,-0.62,-0.07,10.81,1.05,-5.58,-0.40,2.38,-0.05
16006,0.78,-0.03,-0.62,0.03,10.10,2.37,6.89,1.05,0.28,0.09,0.79,-0.01,-0.61,-0.07,10.81,1.05,-5.58,-0.40,2.38,-0.05
16026,0.78,-0.03,-0.62,0.03,10.10,2.37,6.89,1.05,0.28,0.09,0.79,-0.01,-0.61,-0.07,5.95,-1.32,-6.80,-0.40,2.38,-0.05
16046,0.78,-0.03,-0.62,0.03,9.37,0.95,4.90,1.05,0.28,0.09,0.77,-0.02,-0.63,-0.07,5.95,-1.32,-6.80,-0.40,2.38,-0.05
16066,0.78,-0.03,-0.62,0.04,9.37,0.95,4.90,1.05,0.28,0.09,0.77,-0.02,-0.63,-0.07,5.95,-1.32,-6.80,-0.37,-1.70,0.53
16086,0.78,-0.03,-0.62,0.04,10.13,0.49,3.71,1.05,0.28,0.09,0.76,-0.00,-0.65,-0.05,5.95,-1.32,-6.80,-0.37,-1.70,0.53
16106,0.77,-0.02,-0.63,0.05,10.13,0.49,3.71,1.05,0.28,0.09,0.76,-0.00,-0.65,-0.05,11.92,4.62,5.07,-0.37,-1.70,0.53
16126,0.77,-0.02,-0.63,0.05,11.14,-0.01,1.03,1.05,0.28,0.09,0.74,0.03,-0.67,-0.03,11.92,4.62,5.07,-0.37,-1.70,0.53
16146,0.76,-0.02,-0.64,0.06,11.14,-0.01,1.03,1.05,0.28,0.09,0.74,0.03,-0.67,-0.03,11.95,0.40,0.59,-0.37,-1.70,0.53
16166,0.76,-0.02,-0.64,0.06,13.85,1.76,2.71,1.05,0.28,0.09,0.72,0.02,-0.69,-0.02,11.95,0.40,0.59,-0.37,-1.70,0.53
16186,0.74,-0.03,-0.67,0.06,13.85,1.76,2.71,1.05,0.28,0.09,0.72,0.02,-0.69,-0.02,11.34,-2.05,-1.18,-0.37,-1.70,0.53
16206,0.74,-0.03,-0.67,0.06,13.85,1.76,2.71,-0.72,-1.64,0.29,0.70,0.03,-0.71,-0.00,11.34,-2.05,-1.18,-0.37,-1.70,0.53
16226,0.73,-0.04,-0.68,0.06,13.85,1.76,2.71,-0.72,-1.64,0.29,0.70,0.03,-0.71,-0.00,11.34,-2.05,-1.18,1.56,-1.29,0.18
16246,0.73,-0.04,-0.68,0.06,7.80,1.49,-2.07,-0.72,-1.64,0.29,0.68,0.02,-0.73,0.00,11.34,-2.05,-1.18,1.56,-1.29,0.18
16266,0.72,-0.05,-0.69,0.06,7.80,1.49,-2.07,-0.72,-1.64,0.29,0.68,0.02,-0.73,0.00,9.78,1.32,-1.29,1.56,-1.29,0.18
16286,0.72,-0.05,-0.69,0.06,7.80,1.49,-2.07,-0.36,-0.65,0.18,0.67,0.02,-0.74,0.01,9.78,1.32,-1.29,1.56,-1.29,0.18
16306,0.71,-0.05,-0.70,0.06,7.80,1.49,-2.07,-0.36,-0.65,0.18,0.67,0.02,-0.74,0.01,9.55,-2.32,-1.29,1.56,-1.29,0.18
16326,0.71,-0.05,-0.70,0.06,9.45,-3.07,-1.12,-0.36,-0.65,0.18,0.66,0.02,-0.75,0.02,9.55,-2.32,-1.29,1.56,-1.29,0.18
16346,0.69,-0.05,-0.72,0.06,9.45,-3.07,-1.12,-0.36,-0.65,0.18,0.66,0.02,-0.75,0.02,9.86,0.90,-2.32,1.56,-1.29,0.18
16366,0.69,-0.05,-0.72,0.06,9.29,-1.12,-1.73,-0.36,-0.65,0.18,0.65,0.01,-0.76,0.02,9.86,0.90,-2.32,1.56,-1.29,0.18
16386,0.68,-0.05,-0.73,0.06,9.29,-1.12,-1.73,-0.36,-0.65,0.18,0.65,0.01,-0.76,0.02,9.86,0.90,-2.32,-0.14,-0.68,0.25
16406,0.68,-0.05,-0.73,0.06,9.57,-0.58,-1.77,-0.36,-0.65,0.18,0.64,0.01,-0.77,0.01,9.86,0.90,-2.32,-0.14,-0.68,0.25
16426,0.66,-0.06,-0.75,0.06,9.57,-0.58,-1.77,-0.36,-0.65,0.18,0.64,0.01,-0.77,0.01,9.86,0.90,-2.32,-0.31,-0.59,0.27
16446,0.66,-0.06,-0.75,0.06,8.98,-3.11,-1.77,-0.36,-0.65,0.18,0.63,0.00,-0.78,0.01,9.86,0.90,-2.32,-0.31,-0.59,0.27
16466,0.65,-0.05,-0.76,0.06,8.98,-3.11,-1.77,-0.36,-0.65,0.18,0.63,0.00,-0.78,0.01,9.39,-1.05,-2.05,-0.31,-0.59,0.27
16486,0.65,-0.05,-0.76,0.06,9.29,-2.77,-1.92,-0.36,-0.65,0.18,0.62,0.00,-0.78,0.02,9.39,-1.05,-2.05,-0.31,-0.59,0.27
16506,0.63,-0.05,-0.77,0.06,9.29,-2.77,-1.92,-0.36,-0.65,0.18,0.62,0.00,-0.78,0.02,9.39,-1.05,-2.05,0.02,-0.52,0.15
16526,0.63,-0.05,-0.77,0.06,9.41,-0.70,-1.31,-0.36,-0.65,0.18,0.61,-0.00,-0.79,0.02,9.39,-1.05,-2.05,0.02,-0.52,0.15
16546,0.61,-0.06,-0.79,0.06,9.41,-0.70,-1.31,-0.36,-0.65,0.18,0.61,-0.00,-0.79,0.02,9.62,-0.25,-1.79,0.02,-0.52,0.15
16566,0.61,-0.06,-0.79,0.06,9.57,-1.31,-0.70,-0.36,-0.65,0.18,0.60,-0.01,-0.80,0.02,9.62,-0.25,-1.79,0.02,-0.52,0.15
16586,0.59,-0.06,-0.80,0.05,9.57,-1.31,-0.70,-0.36,-0.65,0.18,0.60,-0.01,-0.80,0.02,9.62,-0.25,-1.79,0.06,-0.77,0.20
16606,0.59,-0.06,-0.80,0.05,9.57,-1.31,-0.70,-0.52,-1.18,0.10,0.58,-0.01,-0.81,0.02,9.62,-0.25,-1.79,0.06,-0.77,0.20
16626,0.57,-0.07,-0.81,0.05,9.57,-1.31,-0.70,-0.52,-1.18,0.10,0.58,-0.01,-0.81,0.02,8.77,-0.44,-3.13,0.06,-0.77,0.20
16646,0.57,-0.07,-0.81,0.05,9.33,-1.20,-2.19,-0.52,-1.18,0.10,0.57,-0.01,-0.82,0.02,8.77,-0.44,-3.13,0.06,-0.77,0.20
16666,0.56,-0.07,-0.83,0.04,9.33,-1.20,-2.19,-0.52,-1.18,0.10,0.57,-0.01,-0.82,0.02,9.31,-0.86,-2.67,0.06,-0.77,0.20
16686,0.56,-0.07,-0.83,0.04,9.33,-1.20,-2.19,-0.46,-1.18,-0.15,0.55,-0.01,-0.83,0.03,9.31,-0.86,-2.67,0.06,-0.77,0.20
16706,0.54,-0.07,-0.84,0.03,9.33,-1.20,-2.19,-0.46,-1.18,-0.15,0.55,-0.01,-0.83,0.03,9.13,-0.40,-3.01,0.06,-0.77,0.20
16726,0.54,-0.07,-0.84,0.03,9.26,-0.93,-2.27,-0.46,-1.18,-0.15,0.53,-0.02,-0.85,0.02,9.13,-0.40,-3.01,0.06,-0.77,0.20
16746,0.53,-0.08,-0.84,0.02,9.26,-0.93,-2.27,-0.46,-1.18,-0.15,0.53,-0.02,-0.85,0.02,9.58,-0.13,-3.39,0.06,-0.77,0.20
16766,0.53,-0.08,-0.84,0.02,9.26,-0.93,-2.27,-0.90,-0.52,-0.02,0.51,-0.02,-0.86,0.02,9.58,-0.13,-3.39,0.06,-0.77,0.20
16786,0.52,-0.09,-0.85,0.00,9.26,-0.93,-2.27,-0.90,-0.52,-0.02,0.51,-0.02,-0.86,0.02,9.58,-0.13,-3.39,-0.36,-1.46,0.14
16806,0.52,-0.09,-0.85,0.00,9.49,-0.08,-3.18,-0.90,-0.52,-0.02,0.48,-0.03,-0.88,0.01,9.58,-0.13,-3.39,-0.36,-1.46,0.14
16826,0.52,-0.10,-0.85,-0.02,9.49,-0.08,-3.18,-0.90,-0.52,-0.02,0.48,-0.03,-0.88,0.01,11.08,0.06,-4.39,-0.36,-1.46,0.14
16846,0.52,-0.10,-0.85,-0.02,9.49,-0.08,-3.18,-1.28,0.14,-0.10,0.45,-0.04,-0.89,0.00,11.08,0.06,-4.39,-0.36,-1.46,0.14
16866,0.53,-0.11,-0.84,-0.05,9.49,-0.08,-3.18,-1.28,0.14,-0.10,0.45,-0.04,-0.89,0.00,11.08,0.06,-4.39,-0.79,-1.89,0.08
16886,0.53,-0.11,-0.84,-0.05,12.78,-1.92,1.41,-1.28,0.14,-0.10,0.41,-0.05,-0.91,-0.01,11.08,0.06,-4.39,-0.79,-1.89,0.08
16906,0.55,-0.12,-0.83,-0.07,12.78,-1.92,1.41,-1.28,0.14,-0.10,0.41,-0.05,-0.91,-0.01,14.83,3.01,-2.09,-0.79,-1.89,0.08
16926,0.55,-0.12,-0.83,-0.07,13.66,1.14,1.91,-1.28,0.14,-0.10,0.36,-0.07,-0.93,-0.04,14.83,3.01,-2.09,-0.79,-1.89,0.08
16946,0.58,-0.11,-0.80,-0.09,13.66,1.14,1.91,-1.28,0.14,-0.10,0.36,-0.07,-0.93,-0.04,14.83,3.01,-2.09,-1.84,-2.41,0.26
16966,0.58,-0.11,-0.80,-0.09,10.87,-0.89,-0.08,-1.28,0.14,-0.10,0.32,-0.08,-0.94,-0.04,14.83,3.01,-2.09,-1.84,-2.41,0.26
16986,0.60,-0.10,-0.78,-0.10,10.87,-0.89,-0.08,-1.28,0.14,-0.10,0.32,-0.08,-0.94,-0.04,11.95,-4.62,-5.58,-1.84,-2.41,0.26
17006,0.60,-0.10,-0.78,-0.10,13.70,-0.62,-5.06,-1.28,0.14,-0.10,0.29,-0.08,-0.95,-0.03,11.95,-4.62,-5.58,-1.84,-2.41,0.26
17026,0.64,-0.11,-0.76,-0.10,13.70,-0.62,-5.06,-1.28,0.14,-0.10,0.29,-0.08,-0.95,-0.03,6.86,-1.44,-7.46,-1.84,-2.41,0.26
17046,0.64,-0.11,-0.76,-0.10,13.70,-0.62,-5.06,-0.43,2.10,0.37,0.29,-0.10,-0.95,-0.05,6.86,-1.44,-7.46,-1.84,-2.41,0.26
17066,0.67,-0.12,-0.73,-0.11,13.70,-0.62,-5.06,-0.43,2.10,0.37,0.29,-0.10,-0.95,-0.05,8.05,3.24,-0.14,-1.84,-2.41,0.26
17086,0.67,-0.12,-0.73,-0.11,12.09,-0.08,-4.11,-0.43,2.10,0.37,0.31,-0.11,-0.94,-0.06,8.05,3.24,-0.14,-1.84,-2.41,0.26
17106,0.69,-0.12,-0.70,-0.10,12.09,-0.08,-4.11,-0.43,2.10,0.37,0.31,-0.11,-0.94,-0.06,5.87,-1.44,-2.36,-1.84,-2.41,0.26
17126,0.69,-0.12,-0.70,-0.10,12.09,-0.08,-4.11,0.24,1.84,0.85,0.36,-0.10,-0.92,-0.06,5.87,-1.44,-2.36,-1.84,-2.41,0.26
17146,0.72,-0.11,-0.68,-0.09,12.09,-0.08,-4.11,0.24,1.84,0.85,0.36,-0.10,-0.92,-0.06,5.87,-1.44,-2.36,0.90,2.71,0.10
17166,0.72,-0.11,-0.68,-0.09,8.88,-0.66,-3.45,0.24,1.84,0.85,0.43,-0.09,-0.90,-0.04,5.87,-1.44,-2.36,0.90,2.71,0.10
17186,0.75,-0.10,-0.65,-0.07,8.88,-0.66,-3.45,0.24,1.84,0.85,0.43,-0.09,-0.90,-0.04,7.02,1.55,-3.89,0.90,2.71,0.10
17206,0.75,-0.10,-0.65,-0.07,8.88,-0.66,-3.45,1.09,1.55,0.36,0.50,-0.07,-0.86,-0.05,7.02,1.55,-3.89,0.90,2.71,0.10
17226,0.77,-0.09,-0.63,-0.05,8.88,-0.66,-3.45,1.09,1.55,0.36,0.50,-0.07,-0.86,-0.05,7.02,1.55,-3.89,-0.14,4.16,-0.61
17246,0.77,-0.09,-0.63,-0.05,6.27,0.03,-3.15,1.09,1.55,0.36,0.57,-0.07,-0.81,-0.08,7.02,1.55,-3.89,-0.14,4.16,-0.61
17266,0.78,-0.08,-0.62,-0.03,6.27,0.03,-3.15,1.09,1.55,0.36,0.57,-0.07,-0.81,-0.08,10.12,0.29,-6.27,-0.14,4.16,-0.61
17286,0.78,-0.08,-0.62,-0.03,6.19,-0.54,-2.04,1.09,1.55,0.36,0.64,-0.07,-0.76,-0.09,10.12,0.29,-6.27,-0.14,4.16,-0.61
17306,0.78,-0.08,-0.62,-0.02,6.19,-0.54,-2.04,1.09,1.55,0.36,0.64,-0.07,-0.76,-0.09,10.12,0.29,-6.27,-0.01,4.67,-0.19
17326,0.78,-0.08,-0.62,-0.02,6.19,-0.54,-2.04,0.36,0.27,0.40,0.71,-0.05,-0.70,-0.09,10.12,0.29,-6.27,-0.01,4.67,-0.19
17346,0.78,-0.08,-0.62,-0.01,6.19,-0.54,-2.04,0.36,0.27,0.40,0.71,-0.05,-0.70,-0.09,10.46,-0.29,-6.65,-0.01,4.67,-0.19
17366,0.78,-0.08,-0.62,-0.01,7.27,-0.46,-0.00,0.36,0.27,0.40,0.75,-0.04,-0.65,-0.09,10.46,-0.29,-6.65,-0.01,4.67,-0.19
17386,0.78,-0.07,-0.62,0.01,7.27,-0.46,-0.00,0.36,0.27,0.40,0.75,-0.04,-0.65,-0.09,10.46,-0.29,-6.65,0.15,3.21,-0.14
17406,0.78,-0.07,-0.62,0.01,9.22,-2.19,5.39,0.36,0.27,0.40,0.78,-0.04,-0.62,-0.09,10.46,-0.29,-6.65,0.15,3.21,-0.14
17426,0.78,-0.06,-0.62,0.02,9.22,-2.19,5.39,0.36,0.27,0.40,0.78,-0.04,-0.62,-0.09,6.67,-0.63,-7.45,0.15,3.21,-0.14
17446,0.78,-0.06,-0.62,0.02,10.10,0.80,5.13,0.36,0.27,0.40,0.77,-0.04,-0.63,-0.09,6.67,-0.63,-7.45,0.15,3.21,-0.14
17466,0.78,-0.05,-0.62,0.03,10.10,0.80,5.13,0.36,0.27,0.40,0.77,-0.04,-0.63,-0.09,6.98,-0.29,-7.57,0.15,3.21,-0.14
17486,0.78,-0.05,-0.62,0.03,10.03,-0.16,5.05,0.36,0.27,0.40,0.76,-0.03,-0.65,-0.08,6.98,-0.29,-7.57,0.15,3.21,-0.14
17506,0.77,-0.04,-0.63,0.04,10.03,-0.16,5.05,0.36,0.27,0.40,0.76,-0.03,-0.65,-0.08,12.00,5.57,4.57,0.15,3.21,-0.14
17526,0.77,-0.04,-0.63,0.04,10.03,-0.16,5.05,0.59,-1.03,0.09,0.74,0.01,-0.67,-0.05,12.00,5.57,4.57,0.15,3.21,-0.14
17546,0.77,-0.02,-0.64,0.05,10.03,-0.16,5.05,0.59,-1.03,0.09,0.74,0.01,-0.67,-0.05,11.61,-1.66,1.28,0.15,3.21,-0.14
17566,0.77,-0.02,-0.64,0.05,14.43,1.03,3.29,0.59,-1.03,0.09,0.72,0.02,-0.69,-0.03,11.61,-1.66,1.28,0.15,3.21,-0.14
17586,0.74,-0.02,-0.67,0.06,14.43,1.03,3.29,0.59,-1.03,0.09,0.72,0.02,-0.69,-0.03,11.61,-1.66,1.28,0.97,-1.52,0.27
17606,0.74,-0.02,-0.67,0.06,14.43,1.03,3.29,-0.61,-2.35,0.33,0.70,0.02,-0.71,-0.02,11.61,-1.66,1.28,0.97,-1.52,0.27
17626,0.73,-0.04,-0.68,0.05,14.43,1.03,3.29,-0.61,-2.35,0.33,0.70,0.02,-0.71,-0.02,8.29,1.21,-2.52,0.97,-1.52,0.27
17646,0.73,-0.04,-0.68,0.05,7.80,-0.81,-2.80,-0.61,-2.35,0.33,0.69,0.02,-0.72,-0.01,8.29,1.21,-2.52,0.97,-1.52,0.27
17666,0.72,-0.05,-0.69,0.05,7.80,-0.81,-2.80,-0.61,-2.35,0.33,0.69,0.02,-0.72,-0.01,8.29,1.21,-2.52,-0.09,-1.03,0.42
17686,0.72,-0.05,-0.69,0.05,7.80,-0.81,-2.80,-0.36,-1.01,0.34,0.68,0.02,-0.74,-0.01,8.29,1.21,-2.52,-0.09,-1.03,0.42
17706,0.70,-0.04,-0.71,0.06,7.80,-0.81,-2.80,-0.36,-1.01,0.34,0.68,0.02,-0.74,-0.01,8.93,-1.97,-0.56,-0.09,-1.03,0.42
17726,0.70,-0.04,-0.71,0.06,9.06,-4.64,-0.27,-0.36,-1.01,0.34,0.66,0.02,-0.75,0.00,8.93,-1.97,-0.56,-0.09,-1.03,0.42
17746,0.69,-0.04,-0.72,0.06,9.06,-4.64,-0.27,-0.36,-1.01,0.34,0.66,0.02,-0.75,0.00,8.93,-1.97,-0.56,0.57,-0.77,0.13
17766,0.69,-0.04,-0.72,0.06,9.06,-4.64,-0.27,0.19,-0.89,0.10,0.65,0.02,-0.76,0.01,8.93,-1.97,-0.56,0.57,-0.77,0.13
17786,0.67,-0.04,-0.74,0.06,9.06,-4.64,-0.27,0.19,-0.89,0.10,0.65,0.02,-0.76,0.01,10.08,0.86,-1.29,0.57,-0.77,0.13
17806,0.67,-0.04,-0.74,0.06,9.75,0.49,-0.81,0.19,-0.89,0.10,0.64,0.01,-0.77,0.01,10.08,0.86,-1.29,0.57,-0.77,0.13
17826,0.66,-0.05,-0.75,0.06,9.75,0.49,-0.81,0.19,-0.89,0.10,0.64,0.01,-0.77,0.01,9.70,-0.21,-1.63,0.57,-0.77,0.13
17846,0.66,-0.05,-0.75,0.06,9.26,-3.72,-2.11,0.19,-0.89,0.10,0.63,0.01,-0.78,0.01,9.70,-0.21,-1.63,0.57,-0.77,0.13
17866,0.64,-0.05,-0.76,0.06,9.26,-3.72,-2.11,0.19,-0.89,0.10,0.63,0.01,-0.78,0.01,9.43,-0.63,-2.86,0.57,-0.77,0.13
17886,0.64,-0.05,-0.76,0.06,8.76,-2.30,-2.50,0.19,-0.89,0.10,0.62,0.02,-0.78,0.01,9.43,-0.63,-2.86,0.57,-0.77,0.13
17906,0.63,-0.04,-0.78,0.06,8.76,-2.30,-2.50,0.19,-0.89,0.10,0.62,0.02,-0.78,0.01,9.77,0.13,-2.90,0.57,-0.77,0.13
17926,0.63,-0.04,-0.78,0.06,8.98,-0.96,-2.92,0.19,-0.89,0.10,0.61,0.02,-0.79,0.02,9.77,0.13,-2.90,0.57,-0.77,0.13
17946,0.60,-0.04,-0.79,0.06,8.98,-0.96,-2.92,0.19,-0.89,0.10,0.61,0.02,-0.79,0.02,9.77,0.13,-2.90,0.14,-0.56,0.17
17966,0.60,-0.04,-0.79,0.06,8.98,-0.96,-2.92,-0.31,-1.31,0.01,0.61,0.02,-0.79,0.02,9.32,-0.25,-2.05,0.14,-0.56,0.17
17986,0.58,-0.05,-0.81,0.05,8.98,-0.96,-2.92,-0.31,-1.31,0.01,0.60,0.01,-0.80,0.02,9.32,-0.25,-2.05,0.14,-0.56,0.17
18006,0.58,-0.05,-0.81,0.05,9.02,-1.00,-2.19,-0.31,-1.31,0.01,0.60,0.01,-0.80,0.02,9.23,-0.32,-2.13,0.14,-0.56,0.17
18026,0.56,-0.05,-0.83,0.04,9.02,-1.00,-2.19,-0.31,-1.31,0.01,0.58,0.00,-0.81,0.02,9.23,-0.32,-2.13,0.14,-0.56,0.17
18046,0.56,-0.05,-0.83,0.04,8.84,-2.34,-2.07,-0.31,-1.31,0.01,0.58,0.00,-0.81,0.02,9.20,-0.71,-2.21,0.14,-0.56,0.17
18066,0.53,-0.05,-0.84,0.03,8.84,-2.34,-2.07,-0.31,-1.31,0.01,0.57,0.00,-0.82,0.02,9.20,-0.71,-2.21,0.14,-0.56,0.17
18086,0.53,-0.05,-0.84,0.03,8.84,-2.34,-2.07,-0.39,-1.28,-0.12,0.57,0.00,-0.82,0.02,9.28,-0.36,-1.90,0.14,-0.56,0.17
18106,0.52,-0.06,-0.85,0.02,8.84,-2.34,-2.07,-0.39,-1.28,-0.12,0.55,-0.00,-0.84,0.02,9.28,-0.36,-1.90,0.14,-0.56,0.17
18126,0.52,-0.06,-0.85,0.02,10.03,-1.88,-1.77,-0.39,-1.28,-0.12,0.55,-0.00,-0.84,0.02,9.89,-0.75,-2.44,0.14,-0.56,0.17
18146,0.51,-0.07,-0.86,0.01,10.03,-1.88,-1.77,-0.39,-1.28,-0.12,0.52,-0.01,-0.85,0.01,9.89,-0.75,-2.44,0.14,-0.56,0.17
18166,0.51,-0.07,-0.86,0.01,10.03,-1.88,-1.77,-1.03,-0.47,0.04,0.52,-0.01,-0.85,0.01,9.73,-0.02,-3.43,0.14,-0.56,0.17
18186,0.51,-0.08,-0.86,-0.01,10.03,-1.88,-1.77,-1.03,-0.47,0.04,0.49,-0.01,-0.87,0.01,9.73,-0.02,-3.43,0.14,-0.56,0.17
18206,0.51,-0.08,-0.86,-0.01,11.60,-1.50,-3.22,-1.03,-0.47,0.04,0.49,-0.01,-0.87,0.01,11.19,0.13,-3.82,0.14,-0.56,0.17
18226,0.51,-0.09,-0.85,-0.03,11.60,-1.50,-3.22,-1.03,-0.47,0.04,0.46,-0.02,-0.89,-0.01,11.19,0.13,-3.82,0.14,-0.56,0.17
18246,0.51,-0.09,-0.85,-0.03,11.60,-1.50,-3.22,-1.06,0.31,-0.19,0.46,-0.02,-0.89,-0.01,11.15,0.98,-3.86,0.14,-0.56,0.17
18266,0.53,-0.09,-0.84,-0.06,11.60,-1.50,-3.22,-1.06,0.31,-0.19,0.42,-0.03,-0.91,-0.02,11.15,0.98,-3.86,0.14,-0.56,0.17
18286,0.53,-0.09,-0.84,-0.06,12.59,-1.54,1.14,-1.06,0.31,-0.19,0.42,-0.03,-0.91,-0.02,14.18,1.71,-1.25,0.14,-0.56,0.17
18306,0.55,-0.09,-0.83,-0.08,12.59,-1.54,1.14,-1.06,0.31,-0.19,0.37,-0.04,-0.93,-0.04,14.18,1.71,-1.25,0.14,-0.56,0.17
18326,0.55,-0.09,-0.83,-0.08,13.63,-0.20,0.49,-1.06,0.31,-0.19,0.37,-0.04,-0.93,-0.04,14.18,1.71,-1.25,-1.17,-2.38,0.01
18346,0.58,-0.08,-0.81,-0.09,13.63,-0.20,0.49,-1.06,0.31,-0.19,0.33,-0.05,-0.94,-0.06,14.18,1.71,-1.25,-1.17,-2.38,0.01
18366,0.58,-0.08,-0.81,-0.09,11.67,-1.80,-2.76,-1.06,0.31,-0.19,0.33,-0.05,-0.94,-0.06,11.27,-5.34,-5.73,-1.17,-2.38,0.01
18386,0.61,-0.08,-0.79,-0.08,11.67,-1.80,-2.76,-1.06,0.31,-0.19,0.31,-0.06,-0.95,-0.06,11.27,-5.34,-5.73,-1.17,-2.38,0.01
18406,0.61,-0.08,-0.79,-0.08,12.32,-1.54,-5.56,-1.06,0.31,-0.19,0.31,-0.06,-0.95,-0.06,11.27,-5.34,-5.73,0.34,-1.15,0.13
18431,0.64,-0.08,-0.76,-0.08,12.32,-1.54,-5.56,-1.06,0.31,-0.19,0.30,-0.06,-0.95,-0.06,11.27,-5.34,-5.73,0.34,-1.15,0.13
18446,0.64,-0.08,-0.76,-0.08,12.32,-1.54,-5.56,0.11,1.69,0.37,0.30,-0.06,-0.95,-0.06,8.05,1.02,-0.37,0.34,-1.15,0.13
18466,0.67,-0.08,-0.74,-0.07,12.32,-1.54,-5.56,0.11,1.69,0.37,0.33,-0.06,-0.94,-0.05,8.05,1.02,-0.37,0.34,-1.15,0.13
18486,0.67,-0.08,-0.74,-0.07,10.10,-1.00,-3.76,0.11,1.69,0.37,0.33,-0.06,-0.94,-0.05,5.79,0.17,-2.36,0.34,-1.15,0.13
18506,0.69,-0.08,-0.71,-0.06,10.10,-1.00,-3.76,0.11,1.69,0.37,0.37,-0.06,-0.93,-0.03,5.79,0.17,-2.36,0.34,-1.15,0.13
18526,0.69,-0.08,-0.71,-0.06,9.68,1.76,-3.30,0.11,1.69,0.37,0.37,-0.06,-0.93,-0.03,6.64,0.10,-2.94,0.34,-1.15,0.13
18546,0.72,-0.08,-0.69,-0.05,9.68,1.76,-3.30,0.11,1.69,0.37,0.43,-0.06,-0.90,-0.04,6.64,0.10,-2.94,0.34,-1.15,0.13
18566,0.72,-0.08,-0.69,-0.05,9.26,-0.62,-3.15,0.11,1.69,0.37,0.43,-0.06,-0.90,-0.04,8.39,2.89,-4.05,0.34,-1.15,0.13
18586,0.74,-0.08,-0.67,-0.03,9.26,-0.62,-3.15,0.11,1.69,0.37,0.50,-0.06,-0.86,-0.05,8.39,2.89,-4.05,0.34,-1.15,0.13
18606,0.74,-0.08,-0.67,-0.03,9.26,-0.62,-3.15,0.50,1.54,0.78,0.50,-0.06,-0.86,-0.05,9.78,1.63,-4.43,0.34,-1.15,0.13
18626,0.76,-0.08,-0.64,-0.01,9.26,-0.62,-3.15,0.50,1.54,0.78,0.57,-0.05,-0.82,-0.05,9.78,1.63,-4.43,0.34,-1.15,0.13
18646,0.76,-0.08,-0.64,-0.01,7.37,0.11,-1.65,0.50,1.54,0.78,0.57,-0.05,-0.82,-0.05,10.00,1.51,-6.57,0.34,-1.15,0.13
18666,0.77,-0.07,-0.63,0.00,7.37,0.11,-1.65,0.50,1.54,0.78,0.63,-0.04,-0.77,-0.05,10.00,1.51,-6.57,0.34,-1.15,0.13
18686,0.77,-0.07,-0.63,0.00,7.37,0.11,-1.65,0.80,0.65,0.40,0.63,-0.04,-0.77,-0.05,11.23,0.75,-6.46,0.34,-1.15,0.13
18706,0.77,-0.06,-0.63,0.01,7.37,0.11,-1.65,0.80,0.65,0.40,0.69,-0.03,-0.72,-0.05,11.23,0.75,-6.46,0.34,-1.15,0.13
18726,0.77,-0.06,-0.63,0.01,5.96,0.72,-1.61,0.80,0.65,0.40,0.69,-0.03,-0.72,-0.05,10.16,0.10,-5.27,0.34,-1.15,0.13
18746,0.78,-0.05,-0.63,0.03,5.96,0.72,-1.61,0.80,0.65,0.40,0.74,-0.02,-0.67,-0.05,10.16,0.10,-5.27,0.34,-1.15,0.13
18766,0.78,-0.05,-0.63,0.03,7.34,-1.12,1.07,0.80,0.65,0.40,0.74,-0.02,-0.67,-0.05,10.77,1.32,-5.81,0.34,-1.15,0.13
18786,0.78,-0.04,-0.62,0.04,7.34,-1.12,1.07,0.80,0.65,0.40,0.78,-0.02,-0.63,-0.06,10.77,1.32,-5.81,0.34,-1.15,0.13
18806,0.78,-0.04,-0.62,0.04,10.29,-3.19,4.02,0.80,0.65,0.40,0.78,-0.02,-0.63,-0.06,8.09,0.55,-7.15,0.34,-1.15,0.13
18826,0.78,-0.04,-0.62,0.05,10.29,-3.19,4.02,0.80,0.65,0.40,0.78,-0.02,-0.62,-0.06,8.09,0.55,-7.15,0.34,-1.15,0.13
18846,0.78,-0.04,-0.62,0.05,9.95,2.71,6.47,0.80,0.65,0.40,0.78,-0.02,-0.62,-0.06,5.56,-0.25,-8.38,0.34,-1.15,0.13
18866,0.78,-0.03,-0.63,0.05,9.95,2.71,6.47,0.80,0.65,0.40,0.77,-0.01,-0.64,-0.05,5.56,-0.25,-8.38,0.34,-1.15,0.13
18886,0.78,-0.03,-0.63,0.05,9.95,2.71,6.47,0.56,-0.43,-0.18,0.77,-0.01,-0.64,-0.05,5.91,-1.13,-8.88,0.34,-1.15,0.13
18906,0.77,-0.02,-0.64,0.06,9.95,2.71,6.47,0.56,-0.43,-0.18,0.76,0.01,-0.65,-0.03,5.91,-1.13,-8.88,0.34,-1.15,0.13
18926,0.77,-0.02,-0.64,0.06,8.26,0.11,-2.30,0.56,-0.43,-0.18,0.76,0.01,-0.65,-0.03,8.67,4.88,1.78,0.34,-1.15,0.13
18946,0.77,-0.01,-0.63,0.07,8.26,0.11,-2.30,0.56,-0.43,-0.18,0.74,0.03,-0.67,-0.01,8.67,4.88,1.78,0.34,-1.15,0.13
18966,0.77,-0.01,-0.63,0.07,8.26,0.11,-2.30,0.74,0.38,0.01,0.74,0.03,-0.67,-0.01,15.87,-1.74,3.77,0.34,-1.15,0.13
18986,0.76,-0.00,-0.65,0.08,8.26,0.11,-2.30,0.74,0.38,0.01,0.73,0.04,-0.69,0.00,15.87,-1.74,3.77,0.34,-1.15,0.13
19006,0.76,-0.00,-0.65,0.08,8.14,4.21,0.07,0.74,0.38,0.01,0.73,0.04,-0.69,0.00,14.10,1.36,-2.55,0.34,-1.15,0.13
19026,0.74,-0.02,-0.66,0.06,8.14,4.21,0.07,0.74,0.38,0.01,0.69,0.04,-0.72,0.02,14.10,1.36,-2.55,0.34,-1.15,0.13
19046,0.74,-0.02,-0.66,0.06,8.14,4.21,0.07,-1.47,-0.38,-0.03,0.69,0.04,-0.72,0.02,14.10,1.36,-2.55,-0.49,-1.41,0.53
19066,0.73,-0.04,-0.68,0.07,8.14,4.21,0.07,-1.47,-0.38,-0.03,0.68,0.03,-0.73,0.02,14.10,1.36,-2.55,-0.49,-1.41,0.53
19086,0.73,-0.04,-0.68,0.07,9.91,-3.15,-1.84,-1.47,-0.38,-0.03,0.68,0.03,-0.73,0.02,11.27,0.59,-2.13,-0.49,-1.41,0.53
19106,0.72,-0.05,-0.69,0.06,9.91,-3.15,-1.84,-1.47,-0.38,-0.03,0.66,0.02,-0.75,0.02,11.27,0.59,-2.13,-0.49,-1.41,0.53
19126,0.72,-0.05,-0.69,0.06,9.56,-3.19,-0.23,-1.47,-0.38,-0.03,0.66,0.02,-0.75,0.02,11.27,0.59,-2.13,0.08,-0.99,0.37
19146,0.71,-0.05,-0.70,0.07,9.56,-3.19,-0.23,-1.47,-0.38,-0.03,0.66,0.02,-0.75,0.03,11.27,0.59,-2.13,0.08,-0.99,0.37
19166,0.71,-0.05,-0.70,0.07,9.06,-3.57,-1.38,-1.47,-0.38,-0.03,0.66,0.02,-0.75,0.03,10.00,-0.21,-1.98,0.08,-0.99,0.37
19186,0.69,-0.05,-0.72,0.07,9.06,-3.57,-1.38,-1.47,-0.38,-0.03,0.64,0.01,-0.77,0.03,10.00,-0.21,-1.98,0.08,-0.99,0.37
19206,0.69,-0.05,-0.72,0.07,9.06,-3.57,-1.38,-0.25,-1.02,0.13,0.64,0.01,-0.77,0.03,10.00,-0.21,-1.98,-0.40,-0.67,0.27
19226,0.68,-0.06,-0.73,0.06,9.06,-3.57,-1.38,-0.25,-1.02,0.13,0.63,0.01,-0.77,0.03,10.00,-0.21,-1.98,-0.40,-0.67,0.27
19246,0.68,-0.06,-0.73,0.06,9.71,-1.27,-2.19,-0.25,-1.02,0.13,0.63,0.01,-0.77,0.03,9.62,0.10,-2.52,-0.40,-0.67,0.27
19266,0.66,-0.06,-0.75,0.06,9.71,-1.27,-2.19,-0.25,-1.02,0.13,0.62,0.00,-0.78,0.02,9.62,0.10,-2.52,-0.40,-0.67,0.27
19286,0.66,-0.06,-0.75,0.06,9.14,-3.15,-1.84,-0.25,-1.02,0.13,0.62,0.00,-0.78,0.02,9.20,-1.25,-2.36,-0.40,-0.67,0.27
19306,0.64,-0.06,-0.76,0.06,9.14,-3.15,-1.84,-0.25,-1.02,0.13,0.62,-0.00,-0.79,0.02,9.20,-1.25,-2.36,-0.40,-0.67,0.27
19326,0.64,-0.06,-0.76,0.06,8.98,-2.38,-1.73,-0.25,-1.02,0.13,0.62,-0.00,-0.79,0.02,9.47,-0.90,-1.90,-0.40,-0.67,0.27
19346,0.63,-0.06,-0.78,0.06,8.98,-2.38,-1.73,-0.25,-1.02,0.13,0.60,-0.00,-0.80,0.03,9.47,-0.90,-1.90,-0.40,-0.67,0.27
19366,0.63,-0.06,-0.78,0.06,9.29,-2.04,-0.89,-0.25,-1.02,0.13,0.60,-0.00,-0.80,0.03,9.13,-1.21,-1.90,-0.40,-0.67,0.27
19386,0.61,-0.06,-0.79,0.06,9.29,-2.04,-0.89,-0.25,-1.02,0.13,0.60,0.00,-0.80,0.03,9.13,-1.21,-1.90,-0.40,-0.67,0.27
19406,0.61,-0.06,-0.79,0.06,9.29,-2.04,-0.89,-0.19,-1.19,-0.01,0.60,0.00,-0.80,0.03,9.47,0.52,-2.09,-0.40,-0.67,0.27
19426,0.59,-0.06,-0.80,0.05,9.29,-2.04,-0.89,-0.19,-1.19,-0.01,0.59,0.00,-0.81,0.04,9.47,0.52,-2.09,-0.40,-0.67,0.27
19446,0.59,-0.06,-0.80,0.05,9.95,-1.42,-0.81,-0.19,-1.19,-0.01,0.59,0.00,-0.81,0.04,9.09,-0.29,-2.40,-0.40,-0.67,0.27
19466,0.57,-0.06,-0.82,0.05,9.95,-1.42,-0.81,-0.19,-1.19,-0.01,0.57,0.00,-0.82,0.04,9.09,-0.29,-2.40,-0.40,-0.67,0.27
19486,0.57,-0.06,-0.82,0.05,9.95,-1.42,-0.81,-0.45,-0.96,-0.03,0.57,0.00,-0.82,0.04,9.09,-0.29,-2.40,0.17,-1.05,0.23
19506,0.56,-0.07,-0.82,0.04,9.95,-1.42,-0.81,-0.45,-0.96,-0.03,0.55,-0.00,-0.83,0.04,9.09,-0.29,-2.40,0.17,-1.05,0.23
19526,0.56,-0.07,-0.82,0.04,9.79,-1.16,-1.08,-0.45,-0.96,-0.03,0.55,-0.00,-0.83,0.04,9.43,-0.59,-2.59,0.17,-1.05,0.23
19546,0.55,-0.09,-0.83,0.02,9.79,-1.16,-1.08,-0.45,-0.96,-0.03,0.53,-0.01,-0.85,0.04,9.43,-0.59,-2.59,0.17,-1.05,0.23
19566,0.55,-0.09,-0.83,0.02,9.79,-1.16,-1.08,-1.04,-0.25,0.11,0.53,-0.01,-0.85,0.04,9.43,-0.59,-2.59,-0.27,-1.49,0.30
19586,0.55,-0.10,-0.83,0.00,9.79,-1.16,-1.08,-1.04,-0.25,0.11,0.50,-0.02,-0.86,0.04,9.43,-0.59,-2.59,-0.27,-1.49,0.30
19606,0.55,-0.10,-0.83,0.00,11.02,-1.27,-1.12,-1.04,-0.25,0.11,0.50,-0.02,-0.86,0.04,11.15,-0.25,-3.86,-0.27,-1.49,0.30
19626,0.56,-0.10,-0.82,-0.02,11.02,-1.27,-1.12,-1.04,-0.25,0.11,0.47,-0.02,-0.88,0.04,11.15,-0.25,-3.86,-0.27,-1.49,0.30
19646,0.56,-0.10,-0.82,-0.02,11.02,-1.27,-1.12,-0.64,0.85,-0.32,0.47,-0.02,-0.88,0.04,12.34,1.17,-3.13,-0.27,-1.49,0.30
19666,0.56,-0.11,-0.82,-0.04,11.02,-1.27,-1.12,-0.64,0.85,-0.32,0.43,-0.04,-0.90,0.03,12.34,1.17,-3.13,-0.27,-1.49,0.30
19686,0.56,-0.11,-0.82,-0.04,11.48,0.18,-1.80,-0.64,0.85,-0.32,0.43,-0.04,-0.90,0.03,11.93,1.82,-4.12,-0.27,-1.49,0.30
19706,0.57,-0.12,-0.81,-0.07,11.48,0.18,-1.80,-0.64,0.85,-0.32,0.39,-0.05,-0.92,0.01,11.93,1.82,-4.12,-0.27,-1.49,0.30
19726,0.57,-0.12,-0.81,-0.07,14.31,-0.08,0.15,-0.64,0.85,-0.32,0.39,-0.05,-0.92,0.01,14.56,3.77,-2.25,-0.27,-1.49,0.30
19746,0.59,-0.12,-0.79,-0.09,14.31,-0.08,0.15,-0.64,0.85,-0.32,0.36,-0.07,-0.93,-0.01,14.56,3.77,-2.25,-0.27,-1.49,0.30
19766,0.59,-0.12,-0.79,-0.09,10.90,-0.12,-0.23,-0.64,0.85,-0.32,0.36,-0.07,-0.93,-0.01,11.00,-2.82,-6.50,-0.27,-1.49,0.30
19786,0.62,-0.11,-0.77,-0.11,10.90,-0.12,-0.23,-0.64,0.85,-0.32,0.32,-0.08,-0.94,-0.03,11.00,-2.82,-6.50,-0.27,-1.49,0.30
19806,0.62,-0.11,-0.77,-0.11,11.78,-3.41,-3.53,-0.64,0.85,-0.32,0.32,-0.08,-0.94,-0.03,8.77,-2.01,-3.97,-0.27,-1.49,0.30
19826,0.65,-0.11,-0.75,-0.10,11.78,-3.41,-3.53,-0.64,0.85,-0.32,0.31,-0.08,-0.95,-0.04,8.77,-2.01,-3.97,-0.27,-1.49,0.30
19846,0.65,-0.11,-0.75,-0.10,11.52,-3.07,-3.87,-0.64,0.85,-0.32,0.31,-0.08,-0.95,-0.04,6.82,-1.97,-6.95,-0.27,-1.49,0.30
19866,0.68,-0.11,-0.72,-0.10,11.52,-3.07,-3.87,-0.64,0.85,-0.32,0.30,-0.08,-0.95,-0.04,6.82,-1.97,-6.95,-0.27,-1.49,0.30
19886,0.68,-0.11,-0.72,-0.10,11.52,-3.07,-3.87,0.36,1.82,0.22,0.30,-0.08,-0.95,-0.04,6.64,-3.58,-2.09,-0.27,-1.49,0.30
19906,0.70,-0.10,-0.70,-0.09,11.52,-3.07,-3.87,0.36,1.82,0.22,0.32,-0.08,-0.94,-0.04,6.64,-3.58,-2.09,-0.27,-1.49,0.30
19926,0.70,-0.10,-0.70,-0.09,9.98,-0.27,-3.30,0.36,1.82,0.22,0.32,-0.08,-0.94,-0.04,6.64,-3.58,-2.09,0.73,1.55,0.02
19946,0.73,-0.10,-0.67,-0.08,9.98,-0.27,-3.30,0.36,1.82,0.22,0.35,-0.08,-0.93,-0.03,6.64,-3.58,-2.09,0.73,1.55,0.02
19966,0.73,-0.10,-0.67,-0.08,9.98,-0.27,-3.30,0.60,1.70,0.39,0.35,-0.08,-0.93,-0.03,6.25,-0.59,-3.32,0.73,1.55,0.02
19986,0.75,-0.10,-0.65,-0.07,9.98,-0.27,-3.30,0.60,1.70,0.39,0.41,-0.07,-0.91,-0.03,6.25,-0.59,-3.32,0.73,1.55,0.02
20006,0.75,-0.10,-0.65,-0.07,7.96,0.76,-2.46,0.60,1.70,0.39,0.41,-0.07,-0.91,-0.03,6.25,-0.59,-3.32,0.30,3.11,-0.00
20026,0.77,-0.09,-0.63,-0.06,7.96,0.76,-2.46,0.60,1.70,0.39,0.48,-0.07,-0.88,-0.04,6.25,-0.59,-3.32,0.30,3.11,-0.00
20046,0.77,-0.09,-0.63,-0.06,6.99,0.30,-3.07,0.60,1.70,0.39,0.48,-0.07,-0.88,-0.04,8.43,0.82,-4.36,0.30,3.11,-0.00
20066,0.77,-0.09,-0.62,-0.04,6.99,0.30,-3.07,0.60,1.70,0.39,0.55,-0.05,-0.83,-0.05,8.43,0.82,-4.36,0.30,3.11,-0.00
20086,0.77,-0.09,-0.62,-0.04,5.77,-0.12,-2.96,0.60,1.70,0.39,0.55,-0.05,-0.83,-0.05,10.20,2.66,-4.36,0.30,3.11,-0.00
20106,0.78,-0.08,-0.62,-0.03,5.77,-0.12,-2.96,0.60,1.70,0.39,0.63,-0.05,-0.77,-0.07,10.20,2.66,-4.36,0.30,3.11,-0.00
20126,0.78,-0.08,-0.62,-0.03,5.77,-0.12,-2.96,0.59,-0.05,0.34,0.63,-0.05,-0.77,-0.07,12.69,0.86,-6.77,0.30,3.11,-0.00
20146,0.78,-0.07,-0.62,-0.02,5.77,-0.12,-2.96,0.59,-0.05,0.34,0.70,-0.04,-0.71,-0.09,12.69,0.86,-6.77,0.30,3.11,-0.00
20166,0.78,-0.07,-0.62,-0.02,6.42,0.53,-0.27,0.59,-0.05,0.34,0.70,-0.04,-0.71,-0.09,11.69,0.36,-6.00,0.30,3.11,-0.00
20186,0.78,-0.06,-0.62,-0.00,6.42,0.53,-0.27,0.59,-0.05,0.34,0.75,-0.02,-0.65,-0.09,11.69,0.36,-6.00,0.30,3.11,-0.00
20206,0.78,-0.06,-0.62,-0.00,11.63,-1.00,7.58,0.59,-0.05,0.34,0.75,-0.02,-0.65,-0.09,12.84,1.82,-7.34,0.30,3.11,-0.00
20226,0.78,-0.05,-0.62,0.01,11.63,-1.00,7.58,0.59,-0.05,0.34,0.78,-0.00,-0.61,-0.09,12.84,1.82,-7.34,0.30,3.11,-0.00
20246,0.78,-0.05,-0.62,0.01,9.95,0.53,6.58,0.59,-0.05,0.34,0.78,-0.00,-0.61,-0.09,5.14,-0.67,-6.34,0.30,3.11,-0.00
20266,0.78,-0.04,-0.63,0.01,9.95,0.53,6.58,0.59,-0.05,0.34,0.79,-0.01,-0.61,-0.09,5.14,-0.67,-6.34,0.30,3.11,-0.00
20286,0.78,-0.04,-0.63,0.01,11.66,1.37,6.62,0.59,-0.05,0.34,0.79,-0.01,-0.61,-0.09,5.25,-0.02,-7.15,0.30,3.11,-0.00
20306,0.78,-0.03,-0.63,0.02,11.66,1.37,6.62,0.59,-0.05,0.34,0.76,-0.02,-0.64,-0.08,5.25,-0.02,-7.15,0.30,3.11,-0.00
20326,0.78,-0.03,-0.63,0.02,11.66,1.37,6.62,0.47,-0.23,0.12,0.76,-0.02,-0.64,-0.08,14.03,5.80,9.32,0.30,3.11,-0.00
20346,0.78,-0.03,-0.63,0.02,11.66,1.37,6.62,0.47,-0.23,0.12,0.74,-0.00,-0.66,-0.07,14.03,5.80,9.32,0.30,3.11,-0.00
20366,0.78,-0.03,-0.63,0.02,11.90,3.17,4.63,0.47,-0.23,0.12,0.74,-0.00,-0.66,-0.07,14.03,5.80,9.32,1.19,-1.50,0.19
20386,0.77,-0.03,-0.64,0.03,11.90,3.17,4.63,0.47,-0.23,0.12,0.73,0.01,-0.69,-0.05,14.03,5.80,9.32,1.19,-1.50,0.19
20406,0.77,-0.03,-0.64,0.03,11.90,3.17,4.63,-0.18,-0.68,0.54,0.73,0.01,-0.69,-0.05,14.03,5.80,9.32,0.05,-1.63,0.47
20426,0.75,-0.05,-0.66,0.03,11.90,3.17,4.63,-0.18,-0.68,0.54,0.71,0.00,-0.71,-0.04,14.03,5.80,9.32,0.05,-1.63,0.47
20446,0.75,-0.05,-0.66,0.03,9.75,-2.69,-4.22,-0.18,-0.68,0.54,0.71,0.00,-0.71,-0.04,7.97,-0.55,-3.32,0.05,-1.63,0.47
20466,0.74,-0.06,-0.67,0.03,9.75,-2.69,-4.22,-0.18,-0.68,0.54,0.69,0.00,-0.72,-0.03,7.97,-0.55,-3.32,0.05,-1.63,0.47
20486,0.74,-0.06,-0.67,0.03,9.75,-2.69,-4.22,-0.17,-1.04,0.59,0.69,0.00,-0.72,-0.03,10.96,1.51,-1.71,0.05,-1.63,0.47
20506,0.72,-0.06,-0.69,0.03,9.75,-2.69,-4.22,-0.17,-1.04,0.59,0.68,-0.01,-0.74,-0.02,10.96,1.51,-1.71,0.05,-1.63,0.47
20526,0.72,-0.06,-0.69,0.03,9.61,-1.16,-0.20,-0.17,-1.04,0.59,0.68,-0.01,-0.74,-0.02,9.23,-0.52,-1.40,0.05,-1.63,0.47
20546,0.71,-0.06,-0.70,0.04,9.61,-1.16,-0.20,-0.17,-1.04,0.59,0.66,-0.02,-0.75,-0.02,9.23,-0.52,-1.40,0.05,-1.63,0.47
20566,0.71,-0.06,-0.70,0.04,9.61,-1.16,-0.20,0.16,-0.95,0.09,0.66,-0.02,-0.75,-0.02,9.77,-1.05,-1.56,0.05,-1.63,0.47
20586,0.69,-0.07,-0.71,0.04,9.61,-1.16,-0.20,0.16,-0.95,0.09,0.65,-0.02,-0.76,-0.02,9.77,-1.05,-1.56,0.05,-1.63,0.47
20606,0.69,-0.07,-0.71,0.04,9.33,-0.81,-1.80,0.16,-0.95,0.09,0.65,-0.02,-0.76,-0.02,9.89,0.67,-2.09,0.05,-1.63,0.47
20626,0.68,-0.08,-0.73,0.03,9.33,-0.81,-1.80,0.16,-0.95,0.09,0.64,-0.03,-0.76,-0.02,9.89,0.67,-2.09,0.05,-1.63,0.47
20646,0.68,-0.08,-0.73,0.03,9.37,-0.70,-1.69,0.16,-0.95,0.09,0.64,-0.03,-0.76,-0.02,9.62,0.17,-2.21,0.05,-1.63,0.47
20666,0.66,-0.10,-0.74,0.02,9.37,-0.70,-1.69,0.16,-0.95,0.09,0.64,-0.05,-0.77,-0.03,9.62,0.17,-2.21,0.05,-1.63,0.47
20686,0.66,-0.10,-0.74,0.02,9.18,-2.61,-1.77,0.16,-0.95,0.09,0.64,-0.05,-0.77,-0.03,9.74,-0.59,-1.90,0.05,-1.63,0.47
20706,0.65,-0.10,-0.76,0.02,9.18,-2.61,-1.77,0.16,-0.95,0.09,0.63,-0.06,-0.78,-0.03,9.74,-0.59,-1.90,0.05,-1.63,0.47
20726,0.65,-0.10,-0.76,0.02,8.95,-3.61,-2.30,0.16,-0.95,0.09,0.63,-0.06,-0.78,-0.03,9.74,-0.59,-1.90,-0.50,-0.49,0.21
20746,0.63,-0.10,-0.77,0.02,8.95,-3.61,-2.30,0.16,-0.95,0.09,0.62,-0.06,-0.78,-0.03,9.74,-0.59,-1.90,-0.50,-0.49,0.21
20766,0.63,-0.10,-0.77,0.02,8.95,-3.61,-2.30,0.02,-1.11,-0.11,0.62,-0.06,-0.78,-0.03,9.82,-0.06,-2.02,-0.50,-0.49,0.21
20786,0.61,-0.10,-0.79,0.02,8.95,-3.61,-2.30,0.02,-1.11,-0.11,0.61,-0.07,-0.79,-0.03,9.82,-0.06,-2.02,-0.50,-0.49,0.21
20806,0.61,-0.10,-0.79,0.02,8.95,-1.50,-1.73,0.02,-1.11,-0.11,0.61,-0.07,-0.79,-0.03,9.82,-0.06,-2.02,-0.23,-0.49,0.19
20826,0.59,-0.11,-0.80,0.02,8.95,-1.50,-1.73,0.02,-1.11,-0.11,0.60,-0.08,-0.79,-0.03,9.82,-0.06,-2.02,-0.23,-0.49,0.19
20846,0.59,-0.11,-0.80,0.02,8.95,-1.50,-1.73,-0.69,-1.35,0.11,0.60,-0.08,-0.79,-0.03,9.31,-0.36,-1.79,-0.23,-0.49,0.19
20866,0.56,-0.12,-0.82,0.01,8.95,-1.50,-1.73,-0.69,-1.35,0.11,0.59,-0.08,-0.80,-0.04,9.31,-0.36,-1.79,-0.23,-0.49,0.19
20886,0.56,-0.12,-0.82,0.01,9.29,-1.77,-1.80,-0.69,-1.35,0.11,0.59,-0.08,-0.80,-0.04,9.24,-0.21,-1.90,-0.23,-0.49,0.19
20906,0.54,-0.13,-0.83,0.00,9.29,-1.77,-1.80,-0.69,-1.35,0.11,0.58,-0.09,-0.81,-0.04,9.24,-0.21,-1.90,-0.23,-0.49,0.19
20926,0.54,-0.13,-0.83,0.00,9.29,-1.77,-1.80,-0.64,-1.16,0.00,0.58,-0.09,-0.81,-0.04,9.31,-0.67,-1.79,-0.23,-0.49,0.19
20946,0.52,-0.14,-0.84,-0.01,9.29,-1.77,-1.80,-0.64,-1.16,0.00,0.56,-0.10,-0.82,-0.04,9.31,-0.67,-1.79,-0.23,-0.49,0.19
20966,0.52,-0.14,-0.84,-0.01,9.53,-1.77,-1.61,-0.64,-1.16,0.00,0.56,-0.10,-0.82,-0.04,9.51,-2.39,-1.82,-0.23,-0.49,0.19
20986,0.51,-0.15,-0.84,-0.02,9.53,-1.77,-1.61,-0.64,-1.16,0.00,0.54,-0.09,-0.84,-0.02,9.51,-2.39,-1.82,-0.23,-0.49,0.19
21006,0.51,-0.15,-0.84,-0.02,9.53,-1.77,-1.61,-1.25,-0.34,0.04,0.54,-0.09,-0.84,-0.02,9.89,2.62,-3.20,-0.23,-0.49,0.19
21026,0.51,-0.16,-0.84,-0.04,9.53,-1.77,-1.61,-1.25,-0.34,0.04,0.51,-0.11,-0.85,-0.03,9.89,2.62,-3.20,-0.23,-0.49,0.19
21046,0.51,-0.16,-0.84,-0.04,10.48,-0.50,-2.57,-1.25,-0.34,0.04,0.51,-0.11,-0.85,-0.03,11.19,-0.75,-3.66,-0.23,-0.49,0.19
21066,0.52,-0.17,-0.83,-0.06,10.48,-0.50,-2.57,-1.25,-0.34,0.04,0.48,-0.11,-0.87,-0.03,11.19,-0.75,-3.66,-0.23,-0.49,0.19
21086,0.52,-0.17,-0.83,-0.06,12.06,-0.89,1.64,-1.25,-0.34,0.04,0.48,-0.11,-0.87,-0.03,11.77,1.32,-2.78,-0.23,-0.49,0.19
21106,0.54,-0.17,-0.82,-0.09,12.06,-0.89,1.64,-1.25,-0.34,0.04,0.44,-0.12,-0.89,-0.04,11.77,1.32,-2.78,-0.23,-0.49,0.19
21126,0.54,-0.17,-0.82,-0.09,14.24,-1.88,4.97,-1.25,-0.34,0.04,0.44,-0.12,-0.89,-0.04,16.52,2.70,0.62,-0.23,-0.49,0.19
21146,0.57,-0.17,-0.80,-0.11,14.24,-1.88,4.97,-1.25,-0.34,0.04,0.38,-0.14,-0.91,-0.06,16.52,2.70,0.62,-0.23,-0.49,0.19
21166,0.57,-0.17,-0.80,-0.11,14.28,0.80,3.75,-1.25,-0.34,0.04,0.38,-0.14,-0.91,-0.06,16.52,2.70,0.62,-2.08,-2.94,0.30
21186,0.60,-0.16,-0.77,-0.13,14.28,0.80,3.75,-1.25,-0.34,0.04,0.33,-0.15,-0.93,-0.07,16.52,2.70,0.62,-2.08,-2.94,0.30
21206,0.60,-0.16,-0.77,-0.13,14.28,0.80,3.75,-0.39,2.03,-0.26,0.33,-0.15,-0.93,-0.07,11.69,-5.92,-7.19,-2.08,-2.94,0.30
21226,0.63,-0.15,-0.75,-0.12,14.28,0.80,3.75,-0.39,2.03,-0.26,0.30,-0.14,-0.94,-0.04,11.69,-5.92,-7.19,-2.08,-2.94,0.30
21246,0.63,-0.15,-0.75,-0.12,16.15,-2.77,-7.09,-0.39,2.03,-0.26,0.30,-0.14,-0.94,-0.04,8.32,-2.66,-5.77,-2.08,-2.94,0.30
21266,0.67,-0.14,-0.72,-0.12,16.15,-2.77,-7.09,-0.39,2.03,-0.26,0.29,-0.14,-0.95,-0.02,8.32,-2.66,-5.77,-2.08,-2.94,0.30
21286,0.67,-0.14,-0.72,-0.12,16.15,-2.77,-7.09,0.28,2.54,0.05,0.29,-0.14,-0.95,-0.02,5.98,1.02,-0.60,-2.08,-2.94,0.30
21306,0.71,-0.14,-0.68,-0.12,16.15,-2.77,-7.09,0.28,2.54,0.05,0.30,-0.14,-0.94,-0.04,5.98,1.02,-0.60,-2.08,-2.94,0.30
21326,0.71,-0.14,-0.68,-0.12,9.79,-0.58,-4.72,0.28,2.54,0.05,0.30,-0.14,-0.94,-0.04,3.42,-2.32,-1.29,-2.08,-2.94,0.30
21387,0.74,-0.13,-0.66,-0.10,9.79,-0.58,-4.72,0.28,2.54,0.05,0.34,-0.13,-0.93,-0.04,3.42,-2.32,-1.29,-2.08,-2.94,0.30
21624,0.74,-0.13,-0.66,-0.10,9.79,-0.58,-4.72,0.86,1.79,0.58,0.34,-0.13,-0.93,-0.04,3.61,-0.36,-3.70,-2.08,-2.94,0.30
21870,0.78,-0.07,-0.62,-0.01,9.79,-0.58,-4.72,0.86,1.79,0.58,0.76,-0.04,-0.63,-0.11,3.61,-0.36,-3.70,-2.08,-2.94,0.30
22064,0.78,-0.07,-0.62,-0.01,14.50,-0.31,3.82,0.86,1.79,0.58,0.76,-0.04,-0.63,-0.11,3.61,-0.36,-3.70,2.34,-1.32,0.00
22088,0.64,-0.07,-0.77,0.03,14.50,-0.31,3.82,0.86,1.79,0.58,0.60,-0.02,-0.80,-0.01,3.61,-0.36,-3.70,2.34,-1.32,0.00
22096,0.64,-0.07,-0.77,0.03,9.53,-0.01,-1.73,0.86,1.79,0.58,0.60,-0.02,-0.80,-0.01,9.51,0.25,-2.52,2.34,-1.32,0.00
22107,0.64,-0.07,-0.77,0.03,9.53,-0.01,-1.73,-0.38,-1.18,-0.04,0.59,-0.03,-0.80,-0.01,9.51,0.25,-2.52,2.34,-1.32,0.00
22115,0.62,-0.08,-0.78,0.03,9.53,-0.01,-1.73,-0.38,-1.18,-0.04,0.59,-0.03,-0.80,-0.01,9.47,-0.94,-2.55,2.34,-1.32,0.00
22123,0.62,-0.08,-0.78,0.03,9.29,-0.46,-1.61,-0.38,-1.18,-0.04,0.59,-0.03,-0.81,-0.01,9.47,-0.94,-2.55,2.34,-1.32,0.00
22131,0.62,-0.08,-0.78,0.03,9.29,-0.46,-1.61,-0.71,-1.23,0.05,0.59,-0.03,-0.81,-0.01,9.74,-0.17,-1.82,2.34,-1.32,0.00
22141,0.61,-0.08,-0.79,0.02,9.29,-0.46,-1.61,-0.71,-1.23,0.05,0.59,-0.03,-0.81,-0.01,9.74,-0.17,-1.82,-0.25,-0.64,0.25
22150,0.61,-0.08,-0.79,0.02,9.29,-0.46,-1.61,-0.83,-1.43,0.11,0.58,-0.04,-0.81,-0.01,9.74,-0.17,-1.82,-0.25,-0.64,0.25
22158,0.60,-0.09,-0.80,0.02,9.29,-0.46,-1.61,-0.83,-1.43,0.11,0.58,-0.04,-0.81,-0.01,9.74,-0.17,-1.82,-0.33,-0.66,0.26
22166,0.60,-0.09,-0.80,0.02,8.98,-1.88,-1.80,-0.83,-1.43,0.11,0.58,-0.04,-0.81,-0.01,9.74,-0.17,-1.82,-0.33,-0.66,0.26
22176,0.58,-0.09,-0.81,0.02,8.98,-1.88,-1.80,-0.83,-1.43,0.11,0.58,-0.04,-0.81,-0.01,8.39,-2.32,-2.44,-0.33,-0.66,0.26
22185,0.58,-0.09,-0.81,0.02,8.34,-3.22,-1.88,-0.83,-1.43,0.11,0.57,-0.04,-0.82,-0.01,8.39,-2.32,-2.44,-0.33,-0.66,0.26
22193,0.57,-0.09,-0.82,0.02,8.34,-3.22,-1.88,-0.83,-1.43,0.11,0.57,-0.04,-0.82,-0.01,8.36,-1.44,-2.52,-0.33,-0.66,0.26
22201,0.57,-0.09,-0.82,0.02,8.76,-3.26,-1.84,-0.83,-1.43,0.11,0.57,-0.04,-0.82,-0.00,8.36,-1.44,-2.52,-0.33,-0.66,0.26
22209,0.57,-0.09,-0.82,0.02,8.76,-3.26,-1.84,-0.18,-1.37,0.07,0.57,-0.04,-0.82,-0.00,8.63,-0.13,-3.59,-0.33,-0.66,0.26
22220,0.56,-0.10,-0.82,0.02,8.76,-3.26,-1.84,-0.18,-1.37,0.07,0.57,-0.04,-0.82,-0.00,8.63,-0.13,-3.59,0.39,-0.88,0.13
22228,0.56,-0.10,-0.82,0.02,9.52,-0.96,-1.96,-0.18,-1.37,0.07,0.56,-0.04,-0.83,0.00,8.63,-0.13,-3.59,0.39,-0.88,0.13
22236,0.55,-0.10,-0.83,0.01,9.52,-0.96,-1.96,-0.18,-1.37,0.07,0.56,-0.04,-0.83,0.00,9.82,1.25,-2.86,0.39,-0.88,0.13
22244,0.55,-0.10,-0.83,0.01,9.95,1.30,-1.23,-0.18,-1.37,0.07,0.55,-0.04,-0.83,-0.00,9.82,1.25,-2.86,0.39,-0.88,0.13
22255,0.54,-0.10,-0.84,0.01,9.95,1.30,-1.23,-0.18,-1.37,0.07,0.55,-0.04,-0.83,-0.00,9.39,-0.40,-2.48,0.39,-0.88,0.13
22263,0.54,-0.10,-0.84,0.01,10.21,0.45,-1.50,-0.18,-1.37,0.07,0.54,-0.04,-0.84,0.00,9.39,-0.40,-2.48,0.39,-0.88,0.13
22271,0.54,-0.10,-0.84,0.01,10.21,0.45,-1.50,-0.47,-0.91,0.02,0.54,-0.04,-0.84,0.00,9.23,-1.02,-2.67,0.39,-0.88,0.13
22279,0.53,-0.10,-0.84,0.00,10.21,0.45,-1.50,-0.47,-0.91,0.02,0.54,-0.04,-0.84,0.00,9.23,-1.02,-2.67,0.10,-1.26,0.16
22289,0.53,-0.10,-0.84,0.00,10.21,0.45,-1.50,-0.60,-0.81,0.06,0.53,-0.04,-0.85,0.00,9.23,-1.02,-2.67,0.10,-1.26,0.16
22297,0.52,-0.10,-0.85,0.00,10.21,0.45,-1.50,-0.60,-0.81,0.06,0.53,-0.04,-0.85,0.00,9.23,-1.02,-2.67,-0.06,-1.43,0.16
22305,0.52,-0.10,-0.85,0.00,9.79,-1.69,-1.08,-0.60,-0.81,0.06,0.52,-0.05,-0.85,0.00,9.23,-1.02,-2.67,-0.06,-1.43,0.16
22314,0.52,-0.11,-0.85,-0.01,9.79,-1.69,-1.08,-0.60,-0.81,0.06,0.52,-0.05,-0.85,0.00,10.96,-0.36,-3.20,-0.06,-1.43,0.16
22322,0.52,-0.11,-0.85,-0.01,11.40,-1.00,-1.69,-0.60,-0.81,0.06,0.50,-0.05,-0.86,0.00,10.96,-0.36,-3.20,-0.06,-1.43,0.16
22335,0.52,-0.11,-0.85,-0.01,11.40,-1.00,-1.69,-1.16,-0.37,0.07,0.50,-0.05,-0.86,0.00,11.38,-0.71,-3.43,-0.06,-1.43,0.16
22343,0.51,-0.12,-0.85,-0.02,11.40,-1.00,-1.69,-1.16,-0.37,0.07,0.49,-0.05,-0.87,0.00,11.38,-0.71,-3.43,-0.06,-1.43,0.16
22351,0.51,-0.12,-0.85,-0.02,12.13,-1.04,-0.93,-1.16,-0.37,0.07,0.49,-0.05,-0.87,0.00,11.38,-0.71,-3.43,-0.38,-1.71,0.19
22360,0.51,-0.12,-0.85,-0.03,12.13,-1.04,-0.93,-1.16,-0.37,0.07,0.47,-0.06,-0.88,-0.00,11.38,-0.71,-3.43,-0.38,-1.71,0.19
